PE IR                   SPECTRUM    ASCII       PEDS        1.60        
  -1
YB(NO3)3.ASC
15/11/26
11:00:59.00
15/11/26
11:00:59.00
Admin

450.000000
5









SPECTRUM ONE,CPU32 MAIN 00.02.2010 04-MAY-2000 11:01:50
MIR TGS
MIR
OPTKBR
55861
0.200000

4.000000
STRONG
RATIO
SPECTRUM
MAGNITUDE

DOUBLE

COMBINED


0


#HDR
-1
-1
#GR
CM-1
%T
0.00002384185791015625
0.0
4000.000000
-1.000000
3551
8
516.448984
5.604768
#DATA
4000.000000	93.535781  
3999.000000	93.554719  
3998.000000	93.560222  
3997.000000	93.547000  
3996.000000	93.518328  
3995.000000	93.482859  
3994.000000	93.462654  
3993.000000	93.438643  
3992.000000	93.427936  
3991.000000	93.427032  
3990.000000	93.430750  
3989.000000	93.436181  
3988.000000	93.443467  
3987.000000	93.454431  
3986.000000	93.470301  
3985.000000	93.489186  
3984.000000	93.506154  
3983.000000	93.516822  
3982.000000	93.520351  
3981.000000	93.518561  
3980.000000	93.514095  
3979.000000	93.510359  
3978.000000	93.510533  
3977.000000	93.514403  
3976.000000	93.518050  
3975.000000	93.519127  
3974.000000	93.520628  
3973.000000	93.526634  
3972.000000	93.535106  
3971.000000	93.538086  
3970.000000	93.528481  
3969.000000	93.504853  
3968.000000	93.471503  
3967.000000	93.437081  
3966.000000	93.412500  
3965.000000	93.405088  
3964.000000	93.412359  
3963.000000	93.423421  
3962.000000	93.428512  
3961.000000	93.427191  
3960.000000	93.425640  
3959.000000	93.427909  
3958.000000	93.431360  
3957.000000	93.429572  
3956.000000	93.418679  
3955.000000	93.401430  
3954.000000	93.386927  
3953.000000	93.384782  
3952.000000	93.398921  
3951.000000	93.425665  
3950.000000	93.455779  
3949.000000	93.478768  
3948.000000	93.489210  
3947.000000	93.492570  
3946.000000	93.500479  
3945.000000	93.515980  
3944.000000	93.526361  
3943.000000	93.516543  
3942.000000	93.488702  
3941.000000	93.460623  
3940.000000	93.444290  
3939.000000	93.435783  
3938.000000	93.425472  
3937.000000	93.410298  
3936.000000	93.393224  
3935.000000	93.374131  
3934.000000	93.349148  
3933.000000	93.318502  
3932.000000	93.290122  
3931.000000	93.272058  
3930.000000	93.264049  
3929.000000	93.261649  
3928.000000	93.263044  
3927.000000	93.268178  
3926.000000	93.273280  
3925.000000	93.273798  
3924.000000	93.273551  
3923.000000	93.281383  
3922.000000	93.297410  
3921.000000	93.310130  
3920.000000	93.308905  
3919.000000	93.294818  
3918.000000	93.275604  
3917.000000	93.254006  
3916.000000	93.227620  
3915.000000	93.198037  
3914.000000	93.171710  
3913.000000	93.155464  
3912.000000	93.154231  
3911.000000	93.169253  
3910.000000	93.193765  
3909.000000	93.213670  
3908.000000	93.217750  
3907.000000	93.204299  
3906.000000	93.180701  
3905.000000	93.154915  
3904.000000	93.132265  
3903.000000	93.120047  
3902.000000	93.127590  
3901.000000	93.153044  
3900.000000	93.174210  
3899.000000	93.167541  
3898.000000	93.133728  
3897.000000	93.093812  
3896.000000	93.066423  
3895.000000	93.060551  
3894.000000	93.075538  
3893.000000	93.097498  
3892.000000	93.101745  
3891.000000	93.081346  
3890.000000	93.070025  
3889.000000	93.110037  
3888.000000	93.203936  
3887.000000	93.302904  
3886.000000	93.348560  
3885.000000	93.339118  
3884.000000	93.327059  
3883.000000	93.345276  
3882.000000	93.371267  
3881.000000	93.364496  
3880.000000	93.323651  
3879.000000	93.293578  
3878.000000	93.316008  
3877.000000	93.390832  
3876.000000	93.478620  
3875.000000	93.529665  
3874.000000	93.530352  
3873.000000	93.519178  
3872.000000	93.538009  
3871.000000	93.577960  
3870.000000	93.595360  
3869.000000	93.579523  
3868.000000	93.563664  
3867.000000	93.565253  
3866.000000	93.562110  
3865.000000	93.542130  
3864.000000	93.536901  
3863.000000	93.574745  
3862.000000	93.633735  
3861.000000	93.676958  
3860.000000	93.692998  
3859.000000	93.694930  
3858.000000	93.702820  
3857.000000	93.728878  
3856.000000	93.769404  
3855.000000	93.798176  
3854.000000	93.780894  
3853.000000	93.735646  
3852.000000	93.713244  
3851.000000	93.724937  
3850.000000	93.740869  
3849.000000	93.737623  
3848.000000	93.722416  
3847.000000	93.723022  
3846.000000	93.757134  
3845.000000	93.818712  
3844.000000	93.884571  
3843.000000	93.934660  
3842.000000	93.966715  
3841.000000	93.986707  
3840.000000	93.991930  
3839.000000	93.980308  
3838.000000	93.965295  
3837.000000	93.960039  
3836.000000	93.967226  
3835.000000	93.986110  
3834.000000	94.014940  
3833.000000	94.045052  
3832.000000	94.063233  
3831.000000	94.068512  
3830.000000	94.076630  
3829.000000	94.102145  
3828.000000	94.138577  
3827.000000	94.162478  
3826.000000	94.163172  
3825.000000	94.161796  
3824.000000	94.185995  
3823.000000	94.232271  
3822.000000	94.262611  
3821.000000	94.253571  
3820.000000	94.236378  
3819.000000	94.254223  
3818.000000	94.302758  
3817.000000	94.333590  
3816.000000	94.318483  
3815.000000	94.294363  
3814.000000	94.309250  
3813.000000	94.355092  
3812.000000	94.387518  
3811.000000	94.387586  
3810.000000	94.381230  
3809.000000	94.400432  
3808.000000	94.435604  
3807.000000	94.450887  
3806.000000	94.445939  
3805.000000	94.460016  
3804.000000	94.505934  
3803.000000	94.541369  
3802.000000	94.517823  
3801.000000	94.457388  
3800.000000	94.426533  
3799.000000	94.445306  
3798.000000	94.476602  
3797.000000	94.480735  
3796.000000	94.458755  
3795.000000	94.439424  
3794.000000	94.436539  
3793.000000	94.440743  
3792.000000	94.444823  
3791.000000	94.458433  
3790.000000	94.489904  
3789.000000	94.529259  
3788.000000	94.559534  
3787.000000	94.576408  
3786.000000	94.587987  
3785.000000	94.600767  
3784.000000	94.613610  
3783.000000	94.624902  
3782.000000	94.630896  
3781.000000	94.620608  
3780.000000	94.587674  
3779.000000	94.548516  
3778.000000	94.529208  
3777.000000	94.533540  
3776.000000	94.539572  
3775.000000	94.528929  
3774.000000	94.514978  
3773.000000	94.532684  
3772.000000	94.594800  
3771.000000	94.665763  
3770.000000	94.695308  
3769.000000	94.676502  
3768.000000	94.645803  
3767.000000	94.631339  
3766.000000	94.631086  
3765.000000	94.636158  
3764.000000	94.653610  
3763.000000	94.695759  
3762.000000	94.752664  
3761.000000	94.793705  
3760.000000	94.798540  
3759.000000	94.775034  
3758.000000	94.740489  
3757.000000	94.706563  
3756.000000	94.687980  
3755.000000	94.698044  
3754.000000	94.732842  
3753.000000	94.771197  
3752.000000	94.798426  
3751.000000	94.815959  
3750.000000	94.816933  
3749.000000	94.795156  
3748.000000	94.778999  
3747.000000	94.802462  
3746.000000	94.856009  
3745.000000	94.881555  
3744.000000	94.856039  
3743.000000	94.837362  
3742.000000	94.866472  
3741.000000	94.909903  
3740.000000	94.920045  
3739.000000	94.889953  
3738.000000	94.848302  
3737.000000	94.818193  
3736.000000	94.810899  
3735.000000	94.839234  
3734.000000	94.899178  
3733.000000	94.951936  
3732.000000	94.955363  
3731.000000	94.908605  
3730.000000	94.847999  
3729.000000	94.808040  
3728.000000	94.799566  
3727.000000	94.817140  
3726.000000	94.851995  
3725.000000	94.885521  
3724.000000	94.886597  
3723.000000	94.842572  
3722.000000	94.783829  
3721.000000	94.760023  
3720.000000	94.789205  
3719.000000	94.842084  
3718.000000	94.872599  
3717.000000	94.860647  
3716.000000	94.824941  
3715.000000	94.792795  
3714.000000	94.768983  
3713.000000	94.737080  
3712.000000	94.685920  
3711.000000	94.625866  
3710.000000	94.572397  
3709.000000	94.531771  
3708.000000	94.501937  
3707.000000	94.475395  
3706.000000	94.445492  
3705.000000	94.409430  
3704.000000	94.364780  
3703.000000	94.308924  
3702.000000	94.243446  
3701.000000	94.175987  
3700.000000	94.114194  
3699.000000	94.055529  
3698.000000	93.983172  
3697.000000	93.881737  
3696.000000	93.761871  
3695.000000	93.655156  
3694.000000	93.580392  
3693.000000	93.530430  
3692.000000	93.489323  
3691.000000	93.449996  
3690.000000	93.408898  
3689.000000	93.350698  
3688.000000	93.262101  
3687.000000	93.160701  
3686.000000	93.080310  
3685.000000	93.036983  
3684.000000	93.027649  
3683.000000	93.045761  
3682.000000	93.081018  
3681.000000	93.102959  
3680.000000	93.070311  
3679.000000	92.966205  
3678.000000	92.805006  
3677.000000	92.610830  
3676.000000	92.423628  
3675.000000	92.307417  
3674.000000	92.287521  
3673.000000	92.342463  
3672.000000	92.422711  
3671.000000	92.471876  
3670.000000	92.467956  
3669.000000	92.440346  
3668.000000	92.423791  
3667.000000	92.418292  
3666.000000	92.396556  
3665.000000	92.335112  
3664.000000	92.237291  
3663.000000	92.131189  
3662.000000	92.046066  
3661.000000	91.992578  
3660.000000	91.967558  
3659.000000	91.965189  
3658.000000	91.977114  
3657.000000	91.984579  
3656.000000	91.969909  
3655.000000	91.941226  
3654.000000	91.923745  
3653.000000	91.927835  
3652.000000	91.934682  
3651.000000	91.915315  
3650.000000	91.869145  
3649.000000	91.825969  
3648.000000	91.790459  
3647.000000	91.742119  
3646.000000	91.676969  
3645.000000	91.603182  
3644.000000	91.523064  
3643.000000	91.436288  
3642.000000	91.354599  
3641.000000	91.301508  
3640.000000	91.288335  
3639.000000	91.292158  
3638.000000	91.270586  
3637.000000	91.197893  
3636.000000	91.078817  
3635.000000	90.933278  
3634.000000	90.781815  
3633.000000	90.645085  
3632.000000	90.535916  
3631.000000	90.441009  
3630.000000	90.316159  
3629.000000	90.134189  
3628.000000	89.936050  
3627.000000	89.773669  
3626.000000	89.644552  
3625.000000	89.515444  
3624.000000	89.370640  
3623.000000	89.223147  
3622.000000	89.085934  
3621.000000	88.936590  
3620.000000	88.727139  
3619.000000	88.443376  
3618.000000	88.134514  
3617.000000	87.856861  
3616.000000	87.619794  
3615.000000	87.395093  
3614.000000	87.157430  
3613.000000	86.911728  
3612.000000	86.677284  
3611.000000	86.450021  
3610.000000	86.194798  
3609.000000	85.881650  
3608.000000	85.525512  
3607.000000	85.172743  
3606.000000	84.851367  
3605.000000	84.558322  
3604.000000	84.280130  
3603.000000	84.000327  
3602.000000	83.693300  
3601.000000	83.331194  
3600.000000	82.911823  
3599.000000	82.464971  
3598.000000	82.020920  
3597.000000	81.584044  
3596.000000	81.138755  
3595.000000	80.673091  
3594.000000	80.199374  
3593.000000	79.750813  
3592.000000	79.352146  
3591.000000	78.995254  
3590.000000	78.633872  
3589.000000	78.205716  
3588.000000	77.692368  
3587.000000	77.162317  
3586.000000	76.700363  
3585.000000	76.320732  
3584.000000	75.986350  
3583.000000	75.659440  
3582.000000	75.320098  
3581.000000	74.963929  
3580.000000	74.596723  
3579.000000	74.226837  
3578.000000	73.855318  
3577.000000	73.474917  
3576.000000	73.078663  
3575.000000	72.665848  
3574.000000	72.239498  
3573.000000	71.806088  
3572.000000	71.379116  
3571.000000	70.973630  
3570.000000	70.586162  
3569.000000	70.173371  
3568.000000	69.667626  
3567.000000	69.050740  
3566.000000	68.394891  
3565.000000	67.780514  
3564.000000	67.222632  
3563.000000	66.694582  
3562.000000	66.171355  
3561.000000	65.644338  
3560.000000	65.113251  
3559.000000	64.577512  
3558.000000	64.039586  
3557.000000	63.511265  
3556.000000	63.006651  
3555.000000	62.524572  
3554.000000	62.043518  
3553.000000	61.546053  
3552.000000	61.049200  
3551.000000	60.593396  
3550.000000	60.198839  
3549.000000	59.846749  
3548.000000	59.502475  
3547.000000	59.151181  
3546.000000	58.814104  
3545.000000	58.529528  
3544.000000	58.319674  
3543.000000	58.178924  
3542.000000	58.085661  
3541.000000	58.017240  
3540.000000	57.957432  
3539.000000	57.896406  
3538.000000	57.830678  
3537.000000	57.767337  
3536.000000	57.725535  
3535.000000	57.724831  
3534.000000	57.768973  
3533.000000	57.842289  
3532.000000	57.919005  
3531.000000	57.975006  
3530.000000	57.996866  
3529.000000	57.987225  
3528.000000	57.961812  
3527.000000	57.935249  
3526.000000	57.907596  
3525.000000	57.868124  
3524.000000	57.814017  
3523.000000	57.761314  
3522.000000	57.732978  
3521.000000	57.737489  
3520.000000	57.762315  
3519.000000	57.784214  
3518.000000	57.784920  
3517.000000	57.760127  
3516.000000	57.715091  
3515.000000	57.653733  
3514.000000	57.574810  
3513.000000	57.476067  
3512.000000	57.355431  
3511.000000	57.208222  
3510.000000	57.032030  
3509.000000	56.839605  
3508.000000	56.658157  
3507.000000	56.507159  
3506.000000	56.381590  
3505.000000	56.261875  
3504.000000	56.138981  
3503.000000	56.023901  
3502.000000	55.929614  
3501.000000	55.854202  
3500.000000	55.789565  
3499.000000	55.736041  
3498.000000	55.701176  
3497.000000	55.688571  
3496.000000	55.693465  
3495.000000	55.707985  
3494.000000	55.725691  
3493.000000	55.739308  
3492.000000	55.737838  
3491.000000	55.709502  
3490.000000	55.647872  
3489.000000	55.555043  
3488.000000	55.440613  
3487.000000	55.318809  
3486.000000	55.204270  
3485.000000	55.105835  
3484.000000	55.020623  
3483.000000	54.935532  
3482.000000	54.840284  
3481.000000	54.740569  
3480.000000	54.652146  
3479.000000	54.580252  
3478.000000	54.512873  
3477.000000	54.438011  
3476.000000	54.360845  
3475.000000	54.295094  
3474.000000	54.238437  
3473.000000	54.167864  
3472.000000	54.064960  
3471.000000	53.939392  
3470.000000	53.821061  
3469.000000	53.732614  
3468.000000	53.674376  
3467.000000	53.634501  
3466.000000	53.606495  
3465.000000	53.591572  
3464.000000	53.587282  
3463.000000	53.581283  
3462.000000	53.560830  
3461.000000	53.526748  
3460.000000	53.493696  
3459.000000	53.474575  
3458.000000	53.466723  
3457.000000	53.454509  
3456.000000	53.424823  
3455.000000	53.379603  
3454.000000	53.333211  
3453.000000	53.297799  
3452.000000	53.271026  
3451.000000	53.238176  
3450.000000	53.186722  
3449.000000	53.120091  
3448.000000	53.058932  
3447.000000	53.026802  
3446.000000	53.030516  
3445.000000	53.055435  
3444.000000	53.079686  
3443.000000	53.091541  
3442.000000	53.095034  
3441.000000	53.100406  
3440.000000	53.110385  
3439.000000	53.118545  
3438.000000	53.121585  
3437.000000	53.128755  
3436.000000	53.155033  
3435.000000	53.206347  
3434.000000	53.274528  
3433.000000	53.345599  
3432.000000	53.410564  
3431.000000	53.470370  
3430.000000	53.534825  
3429.000000	53.616424  
3428.000000	53.720454  
3427.000000	53.839463  
3426.000000	53.959284  
3425.000000	54.069892  
3424.000000	54.167839  
3423.000000	54.250157  
3422.000000	54.313545  
3421.000000	54.362112  
3420.000000	54.409363  
3419.000000	54.466205  
3418.000000	54.529328  
3417.000000	54.584409  
3416.000000	54.618214  
3415.000000	54.627269  
3414.000000	54.619418  
3413.000000	54.609901  
3412.000000	54.613532  
3411.000000	54.637773  
3410.000000	54.682160  
3409.000000	54.741711  
3408.000000	54.806710  
3407.000000	54.861114  
3406.000000	54.889489  
3405.000000	54.889659  
3404.000000	54.874437  
3403.000000	54.857739  
3402.000000	54.843311  
3401.000000	54.829423  
3400.000000	54.817628  
3399.000000	54.810629  
3398.000000	54.805984  
3397.000000	54.799384  
3396.000000	54.792523  
3395.000000	54.791069  
3394.000000	54.794759  
3393.000000	54.794169  
3392.000000	54.778403  
3391.000000	54.744173  
3390.000000	54.697936  
3389.000000	54.651632  
3388.000000	54.615001  
3387.000000	54.588092  
3386.000000	54.560959  
3385.000000	54.523378  
3384.000000	54.474533  
3383.000000	54.421076  
3382.000000	54.367748  
3381.000000	54.313575  
3380.000000	54.256427  
3379.000000	54.198110  
3378.000000	54.144182  
3377.000000	54.099547  
3376.000000	54.063325  
3375.000000	54.027586  
3374.000000	53.983106  
3373.000000	53.927295  
3372.000000	53.864548  
3371.000000	53.798735  
3370.000000	53.729625  
3369.000000	53.658515  
3368.000000	53.592917  
3367.000000	53.541024  
3366.000000	53.503023  
3365.000000	53.471040  
3364.000000	53.436352  
3363.000000	53.393961  
3362.000000	53.342898  
3361.000000	53.286861  
3360.000000	53.234482  
3359.000000	53.195260  
3358.000000	53.172948  
3357.000000	53.162341  
3356.000000	53.151382  
3355.000000	53.126780  
3354.000000	53.081323  
3353.000000	53.019033  
3352.000000	52.953418  
3351.000000	52.899426  
3350.000000	52.866122  
3349.000000	52.854734  
3348.000000	52.859526  
3347.000000	52.869249  
3346.000000	52.871302  
3345.000000	52.857813  
3344.000000	52.827520  
3343.000000	52.781870  
3342.000000	52.722688  
3341.000000	52.655757  
3340.000000	52.593580  
3339.000000	52.550665  
3338.000000	52.535119  
3337.000000	52.543902  
3336.000000	52.564025  
3335.000000	52.579083  
3334.000000	52.579047  
3333.000000	52.566316  
3332.000000	52.550635  
3331.000000	52.536807  
3330.000000	52.519656  
3329.000000	52.492519  
3328.000000	52.458036  
3327.000000	52.427833  
3326.000000	52.412358  
3325.000000	52.412213  
3324.000000	52.417815  
3323.000000	52.416618  
3322.000000	52.402923  
3321.000000	52.382376  
3320.000000	52.365614  
3319.000000	52.357243  
3318.000000	52.354036  
3317.000000	52.354371  
3316.000000	52.364127  
3315.000000	52.389180  
3314.000000	52.424272  
3313.000000	52.453830  
3312.000000	52.464542  
3311.000000	52.455973  
3310.000000	52.439856  
3309.000000	52.430691  
3308.000000	52.436419  
3307.000000	52.456784  
3306.000000	52.489370  
3305.000000	52.534075  
3304.000000	52.589183  
3303.000000	52.646647  
3302.000000	52.697714  
3301.000000	52.742975  
3300.000000	52.790021  
3299.000000	52.839160  
3298.000000	52.878395  
3297.000000	52.897237  
3296.000000	52.900906  
3295.000000	52.905544  
3294.000000	52.922735  
3293.000000	52.953178  
3292.000000	52.991364  
3291.000000	53.029712  
3290.000000	53.059202  
3289.000000	53.072715  
3288.000000	53.070484  
3287.000000	53.060108  
3286.000000	53.050234  
3285.000000	53.045063  
3284.000000	53.043785  
3283.000000	53.042803  
3282.000000	53.038380  
3281.000000	53.028205  
3280.000000	53.010423  
3279.000000	52.982306  
3278.000000	52.943076  
3277.000000	52.898337  
3276.000000	52.857104  
3275.000000	52.821138  
3274.000000	52.780271  
3273.000000	52.722114  
3272.000000	52.644534  
3271.000000	52.555819  
3270.000000	52.465321  
3269.000000	52.377902  
3268.000000	52.295701  
3267.000000	52.219931  
3266.000000	52.148426  
3265.000000	52.072708  
3264.000000	51.979749  
3263.000000	51.860278  
3262.000000	51.719367  
3261.000000	51.578349  
3260.000000	51.460640  
3259.000000	51.371602  
3258.000000	51.293496  
3257.000000	51.201130  
3256.000000	51.080252  
3255.000000	50.931409  
3254.000000	50.763219  
3253.000000	50.587426  
3252.000000	50.416747  
3251.000000	50.260049  
3250.000000	50.117338  
3249.000000	49.981143  
3248.000000	49.842915  
3247.000000	49.698326  
3246.000000	49.549630  
3245.000000	49.405123  
3244.000000	49.272945  
3243.000000	49.151625  
3242.000000	49.028861  
3241.000000	48.893399  
3240.000000	48.747302  
3239.000000	48.603314  
3238.000000	48.470335  
3237.000000	48.344914  
3236.000000	48.217968  
3235.000000	48.086559  
3234.000000	47.956046  
3233.000000	47.831442  
3232.000000	47.710080  
3231.000000	47.585450  
3230.000000	47.457391  
3229.000000	47.334607  
3228.000000	47.224615  
3227.000000	47.123686  
3226.000000	47.020448  
3225.000000	46.908331  
3224.000000	46.790430  
3223.000000	46.672296  
3222.000000	46.554842  
3221.000000	46.436643  
3220.000000	46.319758  
3219.000000	46.209656  
3218.000000	46.109876  
3217.000000	46.018555  
3216.000000	45.930026  
3215.000000	45.839386  
3214.000000	45.746396  
3213.000000	45.655052  
3212.000000	45.568845  
3211.000000	45.487199  
3210.000000	45.407068  
3209.000000	45.326181  
3208.000000	45.243386  
3207.000000	45.158757  
3206.000000	45.076706  
3205.000000	45.006646  
3204.000000	44.955316  
3203.000000	44.918047  
3202.000000	44.881260  
3201.000000	44.833850  
3200.000000	44.773490  
3199.000000	44.703751  
3198.000000	44.630750  
3197.000000	44.562645  
3196.000000	44.505964  
3195.000000	44.459382  
3194.000000	44.414837  
3193.000000	44.367133  
3192.000000	44.319884  
3191.000000	44.280666  
3190.000000	44.253262  
3189.000000	44.236398  
3188.000000	44.227088  
3187.000000	44.223040  
3186.000000	44.223670  
3185.000000	44.230115  
3184.000000	44.242280  
3183.000000	44.255448  
3182.000000	44.263243  
3181.000000	44.265764  
3180.000000	44.272357  
3179.000000	44.293799  
3178.000000	44.332416  
3177.000000	44.381104  
3176.000000	44.430939  
3175.000000	44.478470  
3174.000000	44.527124  
3173.000000	44.583563  
3172.000000	44.652357  
3171.000000	44.732840  
3170.000000	44.820391  
3169.000000	44.909814  
3168.000000	44.997122  
3167.000000	45.080392  
3166.000000	45.161690  
3165.000000	45.247267  
3164.000000	45.342749  
3163.000000	45.448048  
3162.000000	45.558968  
3161.000000	45.672656  
3160.000000	45.788484  
3159.000000	45.904639  
3158.000000	46.018286  
3157.000000	46.129617  
3156.000000	46.241555  
3155.000000	46.354311  
3154.000000	46.464534  
3153.000000	46.572498  
3152.000000	46.686942  
3151.000000	46.819347  
3150.000000	46.974256  
3149.000000	47.146360  
3148.000000	47.324831  
3147.000000	47.498876  
3146.000000	47.661619  
3145.000000	47.811673  
3144.000000	47.950907  
3143.000000	48.080245  
3142.000000	48.199817  
3141.000000	48.314688  
3140.000000	48.437327  
3139.000000	48.579721  
3138.000000	48.741877  
3137.000000	48.910133  
3136.000000	49.068592  
3135.000000	49.212837  
3134.000000	49.352619  
3133.000000	49.500811  
3132.000000	49.659657  
3131.000000	49.819454  
3130.000000	49.971208  
3129.000000	50.117566  
3128.000000	50.268910  
3127.000000	50.430943  
3126.000000	50.599522  
3125.000000	50.766119  
3124.000000	50.923698  
3123.000000	51.067698  
3122.000000	51.197016  
3121.000000	51.316713  
3120.000000	51.436690  
3119.000000	51.565703  
3118.000000	51.708527  
3117.000000	51.868088  
3116.000000	52.045056  
3115.000000	52.233296  
3114.000000	52.420482  
3113.000000	52.597085  
3112.000000	52.763049  
3111.000000	52.924373  
3110.000000	53.086334  
3109.000000	53.251977  
3108.000000	53.423478  
3107.000000	53.600992  
3106.000000	53.781300  
3105.000000	53.960128  
3104.000000	54.134883  
3103.000000	54.303950  
3102.000000	54.465694  
3101.000000	54.620575  
3100.000000	54.772469  
3099.000000	54.925769  
3098.000000	55.083081  
3097.000000	55.246675  
3096.000000	55.417901  
3095.000000	55.592044  
3094.000000	55.758042  
3093.000000	55.908649  
3092.000000	56.049171  
3091.000000	56.192102  
3090.000000	56.344499  
3089.000000	56.503914  
3088.000000	56.664585  
3087.000000	56.822590  
3086.000000	56.975845  
3085.000000	57.124845  
3084.000000	57.274632  
3083.000000	57.431664  
3082.000000	57.597065  
3081.000000	57.766121  
3080.000000	57.935687  
3079.000000	58.108646  
3078.000000	58.288787  
3077.000000	58.473814  
3076.000000	58.656299  
3075.000000	58.830979  
3074.000000	58.999164  
3073.000000	59.165569  
3072.000000	59.331717  
3071.000000	59.493615  
3070.000000	59.646553  
3069.000000	59.790970  
3068.000000	59.931565  
3067.000000	60.071663  
3066.000000	60.212561  
3065.000000	60.358869  
3064.000000	60.518220  
3063.000000	60.691067  
3062.000000	60.865056  
3061.000000	61.025554  
3060.000000	61.170487  
3059.000000	61.310653  
3058.000000	61.457045  
3057.000000	61.612549  
3056.000000	61.774515  
3055.000000	61.938770  
3054.000000	62.099780  
3053.000000	62.252429  
3052.000000	62.396655  
3051.000000	62.537381  
3050.000000	62.677653  
3049.000000	62.814152  
3048.000000	62.941354  
3047.000000	63.058579  
3046.000000	63.171399  
3045.000000	63.286743  
3044.000000	63.406376  
3043.000000	63.524132  
3042.000000	63.631613  
3041.000000	63.729634  
3040.000000	63.832671  
3039.000000	63.957108  
3038.000000	64.103491  
3037.000000	64.252442  
3036.000000	64.379084  
3035.000000	64.471439  
3034.000000	64.536989  
3033.000000	64.594881  
3032.000000	64.661225  
3031.000000	64.738468  
3030.000000	64.817817  
3029.000000	64.892179  
3028.000000	64.963954  
3027.000000	65.037621  
3026.000000	65.108319  
3025.000000	65.163806  
3024.000000	65.198125  
3023.000000	65.218441  
3022.000000	65.237430  
3021.000000	65.263382  
3020.000000	65.298486  
3019.000000	65.341000  
3018.000000	65.385545  
3017.000000	65.424669  
3016.000000	65.454117  
3015.000000	65.475159  
3014.000000	65.488997  
3013.000000	65.490295  
3012.000000	65.469588  
3011.000000	65.423416  
3010.000000	65.361568  
3009.000000	65.303067  
3008.000000	65.262820  
3007.000000	65.240240  
3006.000000	65.221236  
3005.000000	65.193245  
3004.000000	65.157836  
3003.000000	65.127249  
3002.000000	65.110813  
3001.000000	65.108216  
3000.000000	65.113740  
2999.000000	65.121959  
2998.000000	65.130777  
2997.000000	65.145034  
2996.000000	65.175365  
2995.000000	65.222303  
2994.000000	65.256614  
2993.000000	65.227633  
2992.000000	65.107086  
2991.000000	64.927236  
2990.000000	64.767385  
2989.000000	64.698051  
2988.000000	64.737489  
2987.000000	64.857755  
2986.000000	65.020165  
2985.000000	65.197952  
2984.000000	65.374092  
2983.000000	65.535038  
2982.000000	65.673567  
2981.000000	65.790650  
2980.000000	65.888636  
2979.000000	65.966162  
2978.000000	66.024657  
2977.000000	66.075669  
2976.000000	66.133991  
2975.000000	66.203419  
2974.000000	66.275404  
2973.000000	66.343514  
2972.000000	66.414217  
2971.000000	66.501370  
2970.000000	66.614983  
2969.000000	66.758300  
2968.000000	66.930578  
2967.000000	67.126788  
2966.000000	67.336165  
2965.000000	67.545786  
2964.000000	67.745682  
2963.000000	67.928822  
2962.000000	68.089606  
2961.000000	68.228325  
2960.000000	68.356327  
2959.000000	68.490607  
2958.000000	68.640843  
2957.000000	68.804911  
2956.000000	68.977308  
2955.000000	69.156446  
2954.000000	69.340358  
2953.000000	69.520248  
2952.000000	69.686058  
2951.000000	69.839375  
2950.000000	69.995020  
2949.000000	70.165258  
2948.000000	70.343569  
2947.000000	70.506872  
2946.000000	70.633953  
2945.000000	70.720221  
2944.000000	70.776334  
2943.000000	70.818158  
2942.000000	70.860453  
2941.000000	70.914905  
2940.000000	70.986960  
2939.000000	71.073259  
2938.000000	71.165283  
2937.000000	71.255793  
2936.000000	71.340532  
2935.000000	71.417182  
2934.000000	71.488565  
2933.000000	71.565046  
2932.000000	71.655004  
2931.000000	71.750004  
2930.000000	71.826490  
2929.000000	71.867875  
2928.000000	71.881890  
2927.000000	71.892375  
2926.000000	71.917887  
2925.000000	71.962068  
2924.000000	72.020483  
2923.000000	72.089791  
2922.000000	72.170330  
2921.000000	72.263898  
2920.000000	72.369333  
2919.000000	72.478342  
2918.000000	72.576975  
2917.000000	72.653872  
2916.000000	72.706584  
2915.000000	72.738959  
2914.000000	72.755340  
2913.000000	72.760496  
2912.000000	72.762574  
2911.000000	72.771047  
2910.000000	72.791141  
2909.000000	72.822230  
2908.000000	72.860589  
2907.000000	72.899432  
2906.000000	72.924914  
2905.000000	72.917100  
2904.000000	72.863939  
2903.000000	72.782700  
2902.000000	72.728094  
2901.000000	72.767487  
2900.000000	72.934521  
2899.000000	73.200299  
2898.000000	73.491694  
2897.000000	73.738562  
2896.000000	73.906829  
2895.000000	73.999711  
2894.000000	74.045077  
2893.000000	74.083064  
2892.000000	74.147878  
2891.000000	74.246065  
2890.000000	74.354337  
2889.000000	74.446355  
2888.000000	74.519829  
2887.000000	74.593275  
2886.000000	74.682667  
2885.000000	74.790182  
2884.000000	74.912369  
2883.000000	75.048594  
2882.000000	75.199389  
2881.000000	75.363082  
2880.000000	75.536720  
2879.000000	75.716872  
2878.000000	75.898447  
2877.000000	76.075182  
2876.000000	76.241008  
2875.000000	76.389010  
2874.000000	76.511699  
2873.000000	76.607321  
2872.000000	76.685611  
2871.000000	76.763512  
2870.000000	76.854808  
2869.000000	76.964515  
2868.000000	77.089592  
2867.000000	77.220963  
2866.000000	77.348145  
2865.000000	77.468722  
2864.000000	77.593322  
2863.000000	77.736169  
2862.000000	77.899700  
2861.000000	78.071452  
2860.000000	78.236182  
2859.000000	78.387869  
2858.000000	78.530323  
2857.000000	78.669758  
2856.000000	78.808064  
2855.000000	78.941970  
2854.000000	79.068451  
2853.000000	79.190667  
2852.000000	79.315757  
2851.000000	79.445568  
2850.000000	79.573217  
2849.000000	79.691271  
2848.000000	79.799280  
2847.000000	79.899204  
2846.000000	79.987457  
2845.000000	80.058417  
2844.000000	80.115908  
2843.000000	80.176073  
2842.000000	80.256497  
2841.000000	80.362660  
2840.000000	80.483218  
2839.000000	80.597036  
2838.000000	80.688038  
2837.000000	80.756864  
2836.000000	80.817518  
2835.000000	80.881076  
2834.000000	80.944553  
2833.000000	80.997112  
2832.000000	81.034219  
2831.000000	81.063159  
2830.000000	81.096649  
2829.000000	81.143156  
2828.000000	81.201340  
2827.000000	81.262366  
2826.000000	81.319348  
2825.000000	81.374348  
2824.000000	81.432646  
2823.000000	81.491401  
2822.000000	81.541222  
2821.000000	81.580432  
2820.000000	81.619505  
2819.000000	81.666853  
2818.000000	81.717091  
2817.000000	81.759468  
2816.000000	81.792827  
2815.000000	81.826435  
2814.000000	81.870159  
2813.000000	81.928442  
2812.000000	81.998617  
2811.000000	82.069093  
2810.000000	82.124192  
2809.000000	82.158249  
2808.000000	82.182768  
2807.000000	82.214004  
2806.000000	82.256183  
2805.000000	82.301165  
2804.000000	82.340199  
2803.000000	82.370650  
2802.000000	82.395719  
2801.000000	82.424080  
2800.000000	82.465855  
2799.000000	82.521927  
2798.000000	82.580238  
2797.000000	82.628947  
2796.000000	82.669971  
2795.000000	82.713160  
2794.000000	82.761777  
2793.000000	82.812467  
2792.000000	82.865971  
2791.000000	82.926836  
2790.000000	82.991766  
2789.000000	83.047503  
2788.000000	83.083889  
2787.000000	83.104150  
2786.000000	83.121184  
2785.000000	83.148100  
2784.000000	83.192457  
2783.000000	83.253926  
2782.000000	83.324388  
2781.000000	83.392174  
2780.000000	83.447771  
2779.000000	83.487166  
2778.000000	83.514191  
2777.000000	83.541546  
2776.000000	83.583741  
2775.000000	83.643167  
2774.000000	83.705751  
2773.000000	83.755107  
2772.000000	83.788636  
2771.000000	83.816112  
2770.000000	83.846878  
2769.000000	83.884040  
2768.000000	83.927307  
2767.000000	83.973999  
2766.000000	84.018569  
2765.000000	84.057059  
2764.000000	84.091356  
2763.000000	84.124891  
2762.000000	84.156560  
2761.000000	84.184336  
2760.000000	84.212667  
2759.000000	84.249717  
2758.000000	84.297245  
2757.000000	84.348192  
2756.000000	84.394910  
2755.000000	84.436480  
2754.000000	84.477767  
2753.000000	84.523437  
2752.000000	84.572439  
2751.000000	84.617438  
2750.000000	84.651613  
2749.000000	84.676485  
2748.000000	84.699840  
2747.000000	84.726073  
2746.000000	84.753922  
2745.000000	84.784161  
2744.000000	84.821819  
2743.000000	84.867807  
2742.000000	84.915547  
2741.000000	84.959689  
2740.000000	85.000783  
2739.000000	85.037220  
2738.000000	85.061594  
2737.000000	85.072627  
2736.000000	85.083730  
2735.000000	85.111182  
2734.000000	85.157655  
2733.000000	85.213055  
2732.000000	85.266144  
2731.000000	85.309728  
2730.000000	85.341284  
2729.000000	85.366296  
2728.000000	85.395631  
2727.000000	85.432384  
2726.000000	85.466230  
2725.000000	85.487149  
2724.000000	85.498386  
2723.000000	85.509191  
2722.000000	85.522982  
2721.000000	85.541237  
2720.000000	85.569872  
2719.000000	85.609193  
2718.000000	85.644105  
2717.000000	85.658978  
2716.000000	85.660029  
2715.000000	85.669958  
2714.000000	85.701051  
2713.000000	85.744365  
2712.000000	85.784430  
2711.000000	85.813476  
2710.000000	85.831035  
2709.000000	85.840911  
2708.000000	85.851532  
2707.000000	85.870943  
2706.000000	85.898310  
2705.000000	85.925675  
2704.000000	85.948925  
2703.000000	85.971963  
2702.000000	85.999718  
2701.000000	86.031151  
2700.000000	86.058633  
2699.000000	86.071719  
2698.000000	86.065725  
2697.000000	86.051322  
2696.000000	86.050695  
2695.000000	86.076902  
2694.000000	86.119804  
2693.000000	86.157833  
2692.000000	86.180016  
2691.000000	86.190884  
2690.000000	86.199191  
2689.000000	86.210346  
2688.000000	86.226280  
2687.000000	86.244152  
2686.000000	86.257108  
2685.000000	86.262859  
2684.000000	86.268378  
2683.000000	86.280199  
2682.000000	86.295156  
2681.000000	86.308026  
2680.000000	86.322481  
2679.000000	86.344863  
2678.000000	86.371338  
2677.000000	86.391418  
2676.000000	86.401448  
2675.000000	86.405309  
2674.000000	86.404899  
2673.000000	86.399971  
2672.000000	86.395305  
2671.000000	86.397798  
2670.000000	86.406496  
2669.000000	86.413191  
2668.000000	86.411881  
2667.000000	86.400964  
2666.000000	86.378824  
2665.000000	86.345233  
2664.000000	86.305486  
2663.000000	86.266484  
2662.000000	86.230994  
2661.000000	86.201012  
2660.000000	86.181348  
2659.000000	86.172421  
2658.000000	86.165394  
2657.000000	86.153699  
2656.000000	86.143839  
2655.000000	86.144740  
2654.000000	86.152623  
2653.000000	86.159018  
2652.000000	86.168379  
2651.000000	86.192534  
2650.000000	86.229472  
2649.000000	86.262012  
2648.000000	86.277947  
2647.000000	86.279524  
2646.000000	86.274112  
2645.000000	86.268698  
2644.000000	86.273388  
2643.000000	86.296366  
2642.000000	86.332769  
2641.000000	86.369255  
2640.000000	86.400489  
2639.000000	86.430910  
2638.000000	86.461347  
2637.000000	86.486132  
2636.000000	86.503771  
2635.000000	86.518885  
2634.000000	86.533568  
2633.000000	86.547848  
2632.000000	86.567016  
2631.000000	86.595734  
2630.000000	86.626480  
2629.000000	86.648124  
2628.000000	86.665219  
2627.000000	86.693441  
2626.000000	86.735198  
2625.000000	86.775288  
2624.000000	86.802210  
2623.000000	86.818269  
2622.000000	86.826422  
2621.000000	86.824082  
2620.000000	86.815037  
2619.000000	86.811712  
2618.000000	86.818313  
2617.000000	86.824314  
2616.000000	86.821778  
2615.000000	86.818378  
2614.000000	86.826485  
2613.000000	86.848032  
2612.000000	86.875647  
2611.000000	86.902057  
2610.000000	86.925243  
2609.000000	86.950100  
2608.000000	86.984298  
2607.000000	87.024509  
2606.000000	87.049657  
2605.000000	87.040587  
2604.000000	87.006764  
2603.000000	86.980742  
2602.000000	86.984557  
2601.000000	87.012254  
2600.000000	87.045185  
2599.000000	87.071609  
2598.000000	87.089138  
2597.000000	87.100965  
2596.000000	87.115420  
2595.000000	87.140938  
2594.000000	87.177310  
2593.000000	87.216142  
2592.000000	87.248728  
2591.000000	87.268243  
2590.000000	87.269569  
2589.000000	87.256678  
2588.000000	87.245548  
2587.000000	87.248784  
2586.000000	87.260958  
2585.000000	87.269199  
2584.000000	87.272806  
2583.000000	87.280688  
2582.000000	87.295192  
2581.000000	87.311479  
2580.000000	87.327432  
2579.000000	87.341504  
2578.000000	87.347671  
2577.000000	87.346179  
2576.000000	87.350445  
2575.000000	87.366709  
2574.000000	87.376080  
2573.000000	87.357411  
2572.000000	87.321164  
2571.000000	87.298015  
2570.000000	87.298136  
2569.000000	87.304400  
2568.000000	87.302655  
2567.000000	87.294250  
2566.000000	87.278259  
2565.000000	87.246435  
2564.000000	87.201505  
2563.000000	87.159822  
2562.000000	87.129323  
2561.000000	87.100911  
2560.000000	87.065500  
2559.000000	87.024616  
2558.000000	86.982086  
2557.000000	86.940554  
2556.000000	86.907503  
2555.000000	86.888981  
2554.000000	86.875543  
2553.000000	86.848856  
2552.000000	86.802976  
2551.000000	86.745733  
2550.000000	86.682278  
2549.000000	86.614662  
2548.000000	86.555153  
2547.000000	86.519267  
2546.000000	86.502740  
2545.000000	86.481781  
2544.000000	86.438320  
2543.000000	86.371309  
2542.000000	86.285909  
2541.000000	86.190891  
2540.000000	86.106924  
2539.000000	86.056624  
2538.000000	86.040200  
2537.000000	86.033862  
2536.000000	86.014324  
2535.000000	85.973703  
2534.000000	85.914343  
2533.000000	85.846789  
2532.000000	85.791149  
2531.000000	85.761112  
2530.000000	85.745344  
2529.000000	85.721120  
2528.000000	85.685464  
2527.000000	85.654404  
2526.000000	85.633429  
2525.000000	85.612010  
2524.000000	85.589927  
2523.000000	85.584854  
2522.000000	85.604867  
2521.000000	85.632205  
2520.000000	85.644735  
2519.000000	85.639972  
2518.000000	85.630458  
2517.000000	85.629431  
2516.000000	85.649019  
2515.000000	85.699357  
2514.000000	85.778701  
2513.000000	85.870555  
2512.000000	85.956907  
2511.000000	86.030608  
2510.000000	86.094363  
2509.000000	86.154364  
2508.000000	86.214337  
2507.000000	86.268642  
2506.000000	86.303661  
2505.000000	86.314179  
2504.000000	86.314718  
2503.000000	86.325901  
2502.000000	86.355131  
2501.000000	86.399752  
2500.000000	86.459708  
2499.000000	86.532512  
2498.000000	86.603511  
2497.000000	86.658752  
2496.000000	86.703467  
2495.000000	86.751663  
2494.000000	86.801858  
2493.000000	86.840213  
2492.000000	86.864394  
2491.000000	86.887733  
2490.000000	86.922904  
2489.000000	86.976692  
2488.000000	87.054708  
2487.000000	87.152700  
2486.000000	87.247557  
2485.000000	87.316644  
2484.000000	87.364421  
2483.000000	87.412474  
2482.000000	87.467142  
2481.000000	87.515886  
2480.000000	87.551322  
2479.000000	87.578329  
2478.000000	87.599824  
2477.000000	87.615276  
2476.000000	87.630834  
2475.000000	87.652192  
2474.000000	87.672045  
2473.000000	87.684882  
2472.000000	87.707966  
2471.000000	87.762958  
2470.000000	87.840082  
2469.000000	87.905721  
2468.000000	87.943832  
2467.000000	87.963379  
2466.000000	87.966273  
2465.000000	87.940533  
2464.000000	87.892263  
2463.000000	87.854607  
2462.000000	87.851669  
2461.000000	87.873725  
2460.000000	87.897149  
2459.000000	87.910194  
2458.000000	87.912557  
2457.000000	87.910533  
2456.000000	87.921154  
2455.000000	87.960637  
2454.000000	88.018571  
2453.000000	88.061966  
2452.000000	88.074739  
2451.000000	88.074520  
2450.000000	88.080275  
2449.000000	88.084504  
2448.000000	88.073711  
2447.000000	88.059482  
2446.000000	88.068916  
2445.000000	88.111451  
2444.000000	88.170059  
2443.000000	88.220882  
2442.000000	88.250220  
2441.000000	88.256528  
2440.000000	88.247494  
2439.000000	88.236001  
2438.000000	88.232433  
2437.000000	88.237983  
2436.000000	88.245293  
2435.000000	88.245872  
2434.000000	88.239842  
2433.000000	88.239523  
2432.000000	88.257238  
2431.000000	88.285679  
2430.000000	88.298842  
2429.000000	88.281101  
2428.000000	88.249142  
2427.000000	88.235831  
2426.000000	88.257830  
2425.000000	88.306656  
2424.000000	88.362490  
2423.000000	88.405418  
2422.000000	88.420755  
2421.000000	88.407950  
2420.000000	88.382042  
2419.000000	88.356560  
2418.000000	88.329740  
2417.000000	88.295527  
2416.000000	88.258809  
2415.000000	88.228118  
2414.000000	88.202451  
2413.000000	88.179261  
2412.000000	88.167909  
2411.000000	88.180684  
2410.000000	88.215488  
2409.000000	88.258852  
2408.000000	88.299139  
2407.000000	88.325951  
2406.000000	88.327252  
2405.000000	88.302776  
2404.000000	88.272129  
2403.000000	88.253694  
2402.000000	88.241733  
2401.000000	88.217757  
2400.000000	88.176249  
2399.000000	88.125440  
2398.000000	88.072474  
2397.000000	88.023874  
2396.000000	87.991489  
2395.000000	87.980188  
2394.000000	87.975943  
2393.000000	87.961521  
2392.000000	87.936549  
2391.000000	87.907047  
2390.000000	87.865366  
2389.000000	87.800004  
2388.000000	87.718690  
2387.000000	87.642825  
2386.000000	87.584094  
2385.000000	87.543850  
2384.000000	87.529840  
2383.000000	87.554340  
2382.000000	87.617450  
2381.000000	87.708310  
2380.000000	87.819792  
2379.000000	87.943464  
2378.000000	88.051804  
2377.000000	88.108340  
2376.000000	88.099933  
2375.000000	88.041437  
2374.000000	87.951508  
2373.000000	87.846703  
2372.000000	87.751238  
2371.000000	87.676040  
2370.000000	87.591507  
2369.000000	87.463750  
2368.000000	87.317035  
2367.000000	87.211955  
2366.000000	87.163665  
2365.000000	87.134632  
2364.000000	87.102505  
2363.000000	87.074077  
2362.000000	87.044692  
2361.000000	87.010058  
2360.000000	86.996962  
2359.000000	87.021563  
2358.000000	87.035313  
2357.000000	86.977952  
2356.000000	86.869084  
2355.000000	86.776034  
2354.000000	86.730847  
2353.000000	86.717541  
2352.000000	86.710578  
2351.000000	86.690479  
2350.000000	86.635221  
2349.000000	86.542624  
2348.000000	86.441754  
2347.000000	86.374887  
2346.000000	86.353750  
2345.000000	86.331642  
2344.000000	86.266471  
2343.000000	86.174476  
2342.000000	86.107838  
2341.000000	86.098787  
2340.000000	86.148383  
2339.000000	86.238988  
2338.000000	86.330288  
2337.000000	86.384656  
2336.000000	86.399084  
2335.000000	86.401037  
2334.000000	86.404997  
2333.000000	86.399283  
2332.000000	86.361371  
2331.000000	86.270592  
2330.000000	86.091861  
2329.000000	85.804269  
2328.000000	85.435882  
2327.000000	85.065981  
2326.000000	84.786060  
2325.000000	84.656412  
2324.000000	84.690765  
2323.000000	84.835478  
2322.000000	84.995382  
2321.000000	85.097599  
2320.000000	85.139438  
2319.000000	85.158289  
2318.000000	85.167893  
2317.000000	85.159791  
2316.000000	85.133253  
2315.000000	85.105112  
2314.000000	85.083996  
2313.000000	85.069322  
2312.000000	85.058624  
2311.000000	85.042095  
2310.000000	84.995785  
2309.000000	84.908874  
2308.000000	84.809328  
2307.000000	84.737390  
2306.000000	84.703156  
2305.000000	84.690886  
2304.000000	84.696681  
2303.000000	84.729877  
2302.000000	84.781557  
2301.000000	84.821326  
2300.000000	84.829564  
2299.000000	84.815343  
2298.000000	84.800324  
2297.000000	84.805203  
2296.000000	84.843544  
2295.000000	84.906857  
2294.000000	84.959338  
2293.000000	84.968854  
2292.000000	84.941469  
2291.000000	84.904882  
2290.000000	84.873744  
2289.000000	84.855609  
2288.000000	84.878257  
2287.000000	84.968091  
2286.000000	85.105534  
2285.000000	85.237852  
2284.000000	85.341079  
2283.000000	85.434393  
2282.000000	85.532312  
2281.000000	85.621716  
2280.000000	85.694199  
2279.000000	85.763930  
2278.000000	85.839808  
2277.000000	85.910406  
2276.000000	85.966400  
2275.000000	86.012367  
2274.000000	86.050587  
2273.000000	86.081297  
2272.000000	86.120302  
2271.000000	86.187347  
2270.000000	86.276587  
2269.000000	86.366579  
2268.000000	86.454182  
2267.000000	86.544778  
2266.000000	86.617429  
2265.000000	86.642563  
2264.000000	86.630247  
2263.000000	86.616611  
2262.000000	86.606603  
2261.000000	86.578637  
2260.000000	86.546437  
2259.000000	86.563477  
2258.000000	86.654343  
2257.000000	86.782349  
2256.000000	86.896508  
2255.000000	86.974618  
2254.000000	87.012935  
2253.000000	87.015034  
2252.000000	87.002105  
2251.000000	87.001193  
2250.000000	87.017283  
2249.000000	87.042458  
2248.000000	87.084026  
2247.000000	87.146033  
2246.000000	87.193104  
2245.000000	87.180461  
2244.000000	87.117013  
2243.000000	87.053882  
2242.000000	87.016045  
2241.000000	86.993163  
2240.000000	86.989796  
2239.000000	87.026742  
2238.000000	87.089145  
2237.000000	87.128666  
2236.000000	87.129838  
2235.000000	87.129029  
2234.000000	87.159767  
2233.000000	87.222350  
2232.000000	87.308745  
2231.000000	87.409709  
2230.000000	87.491720  
2229.000000	87.514840  
2228.000000	87.484154  
2227.000000	87.444065  
2226.000000	87.420381  
2225.000000	87.408565  
2224.000000	87.413963  
2223.000000	87.456019  
2222.000000	87.529880  
2221.000000	87.602640  
2220.000000	87.648556  
2219.000000	87.660308  
2218.000000	87.643396  
2217.000000	87.635398  
2216.000000	87.699485  
2215.000000	87.847304  
2214.000000	87.995850  
2213.000000	88.057546  
2212.000000	88.046853  
2211.000000	88.036301  
2210.000000	88.044859  
2209.000000	88.045519  
2208.000000	88.042288  
2207.000000	88.048834  
2206.000000	88.020714  
2205.000000	87.909638  
2204.000000	87.766421  
2203.000000	87.687151  
2202.000000	87.672924  
2201.000000	87.650183  
2200.000000	87.623673  
2199.000000	87.689228  
2198.000000	87.872437  
2197.000000	88.061496  
2196.000000	88.141229  
2195.000000	88.114270  
2194.000000	88.055516  
2193.000000	88.023546  
2192.000000	88.042048  
2191.000000	88.091100  
2190.000000	88.092050  
2189.000000	87.976575  
2188.000000	87.799986  
2187.000000	87.716949  
2186.000000	87.822766  
2185.000000	88.070750  
2184.000000	88.344564  
2183.000000	88.548827  
2182.000000	88.630651  
2181.000000	88.601190  
2180.000000	88.554132  
2179.000000	88.584997  
2178.000000	88.680656  
2177.000000	88.752541  
2176.000000	88.771182  
2175.000000	88.782220  
2174.000000	88.792477  
2173.000000	88.740693  
2172.000000	88.595128  
2171.000000	88.396293  
2170.000000	88.192685  
2169.000000	88.010142  
2168.000000	87.884079  
2167.000000	87.835976  
2166.000000	87.808435  
2165.000000	87.716475  
2164.000000	87.602443  
2163.000000	87.672692  
2162.000000	88.139721  
2161.000000	89.026837  
2160.000000	90.095326  
2159.000000	90.960223  
2158.000000	91.345789  
2157.000000	91.296125  
2156.000000	91.108032  
2155.000000	91.019295  
2154.000000	91.018364  
2153.000000	90.978128  
2152.000000	90.876631  
2151.000000	90.798124  
2150.000000	90.788528  
2149.000000	90.827592  
2148.000000	90.900000  
2147.000000	90.986547  
2146.000000	91.020065  
2145.000000	90.958631  
2144.000000	90.874451  
2143.000000	90.866064  
2142.000000	90.913170  
2141.000000	90.919580  
2140.000000	90.876403  
2139.000000	90.881567  
2138.000000	91.008010  
2137.000000	91.239714  
2136.000000	91.520077  
2135.000000	91.775939  
2134.000000	91.909891  
2133.000000	91.866379  
2132.000000	91.708443  
2131.000000	91.554425  
2130.000000	91.449178  
2129.000000	91.359875  
2128.000000	91.272313  
2127.000000	91.211548  
2126.000000	91.174046  
2125.000000	91.117644  
2124.000000	91.029187  
2123.000000	90.942027  
2122.000000	90.879588  
2121.000000	90.832543  
2120.000000	90.790280  
2119.000000	90.744146  
2118.000000	90.665635  
2117.000000	90.537373  
2116.000000	90.403192  
2115.000000	90.332471  
2114.000000	90.335939  
2113.000000	90.366812  
2112.000000	90.397828  
2111.000000	90.441103  
2110.000000	90.499484  
2109.000000	90.560703  
2108.000000	90.634005  
2107.000000	90.726720  
2106.000000	90.788016  
2105.000000	90.748255  
2104.000000	90.620200  
2103.000000	90.493352  
2102.000000	90.425672  
2101.000000	90.408873  
2100.000000	90.439657  
2099.000000	90.545683  
2098.000000	90.718406  
2097.000000	90.884351  
2096.000000	90.973017  
2095.000000	90.968325  
2094.000000	90.883237  
2093.000000	90.740709  
2092.000000	90.589726  
2091.000000	90.485279  
2090.000000	90.437688  
2089.000000	90.417269  
2088.000000	90.406816  
2087.000000	90.407960  
2086.000000	90.405951  
2085.000000	90.382416  
2084.000000	90.357636  
2083.000000	90.365022  
2082.000000	90.387823  
2081.000000	90.377579  
2080.000000	90.331803  
2079.000000	90.294714  
2078.000000	90.286104  
2077.000000	90.291945  
2076.000000	90.318433  
2075.000000	90.385427  
2074.000000	90.467077  
2073.000000	90.510318  
2072.000000	90.515902  
2071.000000	90.531172  
2070.000000	90.562677  
2069.000000	90.570833  
2068.000000	90.552333  
2067.000000	90.548854  
2066.000000	90.562876  
2065.000000	90.538287  
2064.000000	90.443275  
2063.000000	90.305765  
2062.000000	90.153904  
2061.000000	89.990048  
2060.000000	89.831209  
2059.000000	89.714018  
2058.000000	89.652324  
2057.000000	89.629873  
2056.000000	89.619484  
2055.000000	89.567392  
2054.000000	89.402484  
2053.000000	89.141003  
2052.000000	88.952070  
2051.000000	89.023569  
2050.000000	89.356731  
2049.000000	89.763166  
2048.000000	90.067727  
2047.000000	90.223914  
2046.000000	90.244752  
2045.000000	90.170963  
2044.000000	90.110105  
2043.000000	90.159329  
2042.000000	90.269917  
2041.000000	90.305875  
2040.000000	90.249582  
2039.000000	90.219683  
2038.000000	90.280591  
2037.000000	90.377547  
2036.000000	90.469375  
2035.000000	90.588254  
2034.000000	90.740097  
2033.000000	90.870172  
2032.000000	90.951162  
2031.000000	90.991146  
2030.000000	90.963718  
2029.000000	90.862371  
2028.000000	90.799003  
2027.000000	90.895840  
2026.000000	91.093442  
2025.000000	91.211969  
2024.000000	91.199765  
2023.000000	91.173271  
2022.000000	91.217591  
2021.000000	91.308317  
2020.000000	91.422444  
2019.000000	91.566176  
2018.000000	91.679372  
2017.000000	91.667767  
2016.000000	91.559401  
2015.000000	91.475139  
2014.000000	91.439836  
2013.000000	91.371618  
2012.000000	91.248794  
2011.000000	91.160217  
2010.000000	91.191129  
2009.000000	91.361170  
2008.000000	91.650699  
2007.000000	91.976603  
2006.000000	92.180173  
2005.000000	92.175295  
2004.000000	92.077194  
2003.000000	92.056256  
2002.000000	92.116593  
2001.000000	92.143824  
2000.000000	92.113319  
1999.000000	92.095470  
1998.000000	92.083898  
1997.000000	91.996270  
1996.000000	91.844777  
1995.000000	91.739805  
1994.000000	91.718652  
1993.000000	91.711982  
1992.000000	91.693640  
1991.000000	91.712279  
1990.000000	91.738181  
1989.000000	91.649413  
1988.000000	91.414504  
1987.000000	91.147349  
1986.000000	90.944142  
1985.000000	90.778528  
1984.000000	90.590847  
1983.000000	90.384244  
1982.000000	90.218853  
1981.000000	90.205258  
1980.000000	90.490508  
1979.000000	91.113138  
1978.000000	91.858663  
1977.000000	92.415470  
1976.000000	92.692951  
1975.000000	92.828088  
1974.000000	92.921562  
1973.000000	92.965227  
1972.000000	92.984597  
1971.000000	93.045743  
1970.000000	93.123018  
1969.000000	93.128551  
1968.000000	93.083046  
1967.000000	93.103744  
1966.000000	93.203472  
1965.000000	93.276372  
1964.000000	93.295407  
1963.000000	93.349441  
1962.000000	93.489645  
1961.000000	93.671064  
1960.000000	93.836564  
1959.000000	93.944167  
1958.000000	93.930458  
1957.000000	93.778518  
1956.000000	93.604140  
1955.000000	93.550595  
1954.000000	93.611090  
1953.000000	93.666255  
1952.000000	93.671111  
1951.000000	93.678551  
1950.000000	93.704744  
1949.000000	93.709090  
1948.000000	93.700745  
1947.000000	93.738132  
1946.000000	93.820128  
1945.000000	93.889016  
1944.000000	93.935981  
1943.000000	93.992435  
1942.000000	94.020703  
1941.000000	93.958520  
1940.000000	93.861623  
1939.000000	93.846758  
1938.000000	93.922301  
1937.000000	93.987080  
1936.000000	93.984771  
1935.000000	93.961797  
1934.000000	93.959539  
1933.000000	93.958809  
1932.000000	93.947433  
1931.000000	93.943611  
1930.000000	93.938565  
1929.000000	93.906576  
1928.000000	93.881167  
1927.000000	93.928275  
1926.000000	94.035454  
1925.000000	94.111059  
1924.000000	94.104195  
1923.000000	94.058395  
1922.000000	94.020472  
1921.000000	93.979863  
1920.000000	93.933256  
1919.000000	93.915825  
1918.000000	93.940422  
1917.000000	93.974507  
1916.000000	94.006225  
1915.000000	94.061819  
1914.000000	94.136461  
1913.000000	94.184587  
1912.000000	94.188376  
1911.000000	94.177340  
1910.000000	94.169972  
1909.000000	94.154714  
1908.000000	94.138659  
1907.000000	94.148240  
1906.000000	94.178211  
1905.000000	94.202255  
1904.000000	94.228024  
1903.000000	94.281601  
1902.000000	94.342205  
1901.000000	94.359064  
1900.000000	94.335542  
1899.000000	94.325881  
1898.000000	94.347839  
1897.000000	94.365415  
1896.000000	94.360809  
1895.000000	94.361978  
1894.000000	94.386318  
1893.000000	94.419159  
1892.000000	94.454592  
1891.000000	94.496402  
1890.000000	94.524251  
1889.000000	94.523574  
1888.000000	94.533646  
1887.000000	94.593197  
1886.000000	94.666878  
1885.000000	94.689827  
1884.000000	94.664810  
1883.000000	94.650826  
1882.000000	94.662102  
1881.000000	94.659254  
1880.000000	94.636181  
1879.000000	94.632116  
1878.000000	94.654017  
1877.000000	94.664509  
1876.000000	94.655236  
1875.000000	94.659972  
1874.000000	94.687039  
1873.000000	94.706768  
1872.000000	94.709254  
1871.000000	94.713795  
1870.000000	94.715886  
1869.000000	94.688450  
1868.000000	94.656508  
1867.000000	94.673369  
1866.000000	94.723725  
1865.000000	94.752280  
1864.000000	94.749673  
1863.000000	94.748684  
1862.000000	94.762279  
1861.000000	94.775524  
1860.000000	94.793318  
1859.000000	94.834624  
1858.000000	94.879408  
1857.000000	94.885719  
1856.000000	94.860034  
1855.000000	94.846841  
1854.000000	94.855092  
1853.000000	94.860213  
1852.000000	94.869106  
1851.000000	94.911444  
1850.000000	94.967829  
1849.000000	94.980091  
1848.000000	94.940842  
1847.000000	94.900860  
1846.000000	94.885833  
1845.000000	94.881134  
1844.000000	94.904016  
1843.000000	94.980003  
1842.000000	95.061302  
1841.000000	95.092086  
1840.000000	95.091912  
1839.000000	95.113513  
1838.000000	95.157773  
1837.000000	95.171711  
1836.000000	95.141147  
1835.000000	95.109694  
1834.000000	95.091735  
1833.000000	95.051483  
1832.000000	94.976770  
1831.000000	94.912646  
1830.000000	94.901496  
1829.000000	94.927893  
1828.000000	94.964225  
1827.000000	95.011384  
1826.000000	95.053009  
1825.000000	95.050740  
1824.000000	95.012097  
1823.000000	94.986920  
1822.000000	94.994802  
1821.000000	95.026689  
1820.000000	95.094467  
1819.000000	95.209684  
1818.000000	95.319526  
1817.000000	95.335611  
1816.000000	95.247387  
1815.000000	95.130648  
1814.000000	95.034687  
1813.000000	94.941339  
1812.000000	94.836634  
1811.000000	94.750837  
1810.000000	94.700911  
1809.000000	94.656425  
1808.000000	94.595302  
1807.000000	94.531605  
1806.000000	94.473982  
1805.000000	94.406695  
1804.000000	94.317327  
1803.000000	94.205888  
1802.000000	94.066758  
1801.000000	93.906384  
1800.000000	93.774745  
1799.000000	93.719626  
1798.000000	93.719060  
1797.000000	93.713444  
1796.000000	93.685036  
1795.000000	93.658874  
1794.000000	93.641381  
1793.000000	93.602563  
1792.000000	93.539159  
1791.000000	93.484532  
1790.000000	93.433436  
1789.000000	93.363532  
1788.000000	93.291290  
1787.000000	93.238693  
1786.000000	93.188010  
1785.000000	93.106431  
1784.000000	93.011715  
1783.000000	92.958308  
1782.000000	92.964250  
1781.000000	93.008391  
1780.000000	93.085099  
1779.000000	93.199959  
1778.000000	93.323113  
1777.000000	93.407729  
1776.000000	93.444113  
1775.000000	93.452707  
1774.000000	93.436319  
1773.000000	93.391201  
1772.000000	93.379146  
1771.000000	93.466179  
1770.000000	93.593818  
1769.000000	93.651431  
1768.000000	93.609958  
1767.000000	93.523677  
1766.000000	93.436355  
1765.000000	93.344996  
1764.000000	93.250782  
1763.000000	93.177212  
1762.000000	93.126864  
1761.000000	93.060173  
1760.000000	92.965075  
1759.000000	92.879072  
1758.000000	92.815178  
1757.000000	92.752127  
1756.000000	92.702393  
1755.000000	92.706014  
1754.000000	92.756084  
1753.000000	92.791581  
1752.000000	92.767053  
1751.000000	92.706595  
1750.000000	92.638823  
1749.000000	92.550332  
1748.000000	92.475511  
1747.000000	92.479351  
1746.000000	92.538203  
1745.000000	92.564625  
1744.000000	92.526962  
1743.000000	92.473774  
1742.000000	92.449058  
1741.000000	92.457954  
1740.000000	92.515140  
1739.000000	92.629259  
1738.000000	92.747153  
1737.000000	92.813882  
1736.000000	92.833624  
1735.000000	92.875855  
1734.000000	92.982860  
1733.000000	93.044279  
1732.000000	93.001496  
1731.000000	92.961241  
1730.000000	92.967961  
1729.000000	92.961998  
1728.000000	92.922359  
1727.000000	92.895221  
1726.000000	92.892878  
1725.000000	92.860293  
1724.000000	92.767333  
1723.000000	92.656319  
1722.000000	92.566203  
1721.000000	92.481246  
1720.000000	92.382307  
1719.000000	92.279528  
1718.000000	92.178615  
1717.000000	92.049049  
1716.000000	91.888154  
1715.000000	91.753826  
1714.000000	91.650810  
1713.000000	91.517031  
1712.000000	91.340103  
1711.000000	91.167752  
1710.000000	91.010404  
1709.000000	90.814306  
1708.000000	90.555518  
1707.000000	90.288559  
1706.000000	90.063541  
1705.000000	89.860311  
1704.000000	89.665494  
1703.000000	89.486314  
1702.000000	89.279508  
1701.000000	88.946348  
1700.000000	88.520070  
1699.000000	88.207905  
1698.000000	88.034906  
1697.000000	87.807468  
1696.000000	87.432760  
1695.000000	87.026257  
1694.000000	86.674041  
1693.000000	86.338829  
1692.000000	85.994669  
1691.000000	85.639800  
1690.000000	85.271303  
1689.000000	84.883027  
1688.000000	84.517080  
1687.000000	84.207419  
1686.000000	83.906186  
1685.000000	83.456578  
1684.000000	82.872144  
1683.000000	82.457859  
1682.000000	82.247446  
1681.000000	82.041931  
1680.000000	81.777219  
1679.000000	81.497696  
1678.000000	81.236797  
1677.000000	80.921049  
1676.000000	80.455398  
1675.000000	79.878280  
1674.000000	79.316926  
1673.000000	78.780348  
1672.000000	78.187089  
1671.000000	77.475646  
1670.000000	76.595744  
1669.000000	75.565378  
1668.000000	74.528618  
1667.000000	73.609109  
1666.000000	72.760954  
1665.000000	71.815392  
1664.000000	70.610982  
1663.000000	69.191240  
1662.000000	67.851585  
1661.000000	66.793562  
1660.000000	65.985202  
1659.000000	65.388342  
1658.000000	65.011122  
1657.000000	64.787833  
1656.000000	64.646049  
1655.000000	64.580768  
1654.000000	64.820233  
1653.000000	65.384501  
1652.000000	65.740731  
1651.000000	65.797125  
1650.000000	65.823846  
1649.000000	65.843220  
1648.000000	65.748884  
1647.000000	65.518638  
1646.000000	65.262530  
1645.000000	64.938636  
1644.000000	64.465901  
1643.000000	63.886014  
1642.000000	63.223744  
1641.000000	62.430197  
1640.000000	61.506218  
1639.000000	60.541821  
1638.000000	59.558339  
1637.000000	58.327736  
1636.000000	56.661018  
1635.000000	55.067298  
1634.000000	54.087163  
1633.000000	53.527559  
1632.000000	53.106713  
1631.000000	52.781431  
1630.000000	52.591067  
1629.000000	52.540590  
1628.000000	52.583580  
1627.000000	52.715447  
1626.000000	52.952387  
1625.000000	53.301239  
1624.000000	53.822197  
1623.000000	54.613850  
1622.000000	55.607807  
1621.000000	56.598565  
1620.000000	57.542081  
1619.000000	58.604129  
1618.000000	60.054941  
1617.000000	62.015502  
1616.000000	64.080620  
1615.000000	65.752655  
1614.000000	67.051387  
1613.000000	68.221209  
1612.000000	69.398794  
1611.000000	70.597086  
1610.000000	71.753725  
1609.000000	72.824841  
1608.000000	73.815882  
1607.000000	74.730860  
1606.000000	75.541180  
1605.000000	76.242458  
1604.000000	76.883436  
1603.000000	77.509201  
1602.000000	78.113796  
1601.000000	78.676387  
1600.000000	79.202590  
1599.000000	79.695199  
1598.000000	80.132337  
1597.000000	80.510570  
1596.000000	80.869482  
1595.000000	81.238053  
1594.000000	81.591488  
1593.000000	81.900211  
1592.000000	82.177829  
1591.000000	82.442611  
1590.000000	82.680828  
1589.000000	82.884702  
1588.000000	83.081772  
1587.000000	83.288778  
1586.000000	83.478387  
1585.000000	83.627188  
1584.000000	83.757087  
1583.000000	83.889001  
1582.000000	83.995113  
1581.000000	84.052242  
1580.000000	84.093187  
1579.000000	84.152224  
1578.000000	84.204564  
1577.000000	84.228666  
1576.000000	84.290863  
1575.000000	84.400839  
1574.000000	84.457003  
1573.000000	84.438392  
1572.000000	84.401600  
1571.000000	84.388155  
1570.000000	84.390384  
1569.000000	84.377926  
1568.000000	84.362761  
1567.000000	84.350058  
1566.000000	84.304797  
1565.000000	84.216859  
1564.000000	84.143116  
1563.000000	84.136540  
1562.000000	84.127168  
1561.000000	83.996400  
1560.000000	83.722847  
1559.000000	83.508368  
1558.000000	83.478808  
1557.000000	83.437387  
1556.000000	83.357767  
1555.000000	83.300871  
1554.000000	83.193356  
1553.000000	83.016869  
1552.000000	82.824476  
1551.000000	82.639966  
1550.000000	82.391263  
1549.000000	82.074614  
1548.000000	81.794999  
1547.000000	81.593947  
1546.000000	81.359644  
1545.000000	80.956793  
1544.000000	80.449911  
1543.000000	80.007623  
1542.000000	79.596309  
1541.000000	78.992251  
1540.000000	78.283570  
1539.000000	77.792836  
1538.000000	77.418883  
1537.000000	76.988400  
1536.000000	76.524659  
1535.000000	75.975847  
1534.000000	75.171567  
1533.000000	74.130017  
1532.000000	73.185523  
1531.000000	72.446165  
1530.000000	71.720020  
1529.000000	70.859329  
1528.000000	69.857187  
1527.000000	68.760943  
1526.000000	67.582894  
1525.000000	66.405915  
1524.000000	65.341231  
1523.000000	64.276783  
1522.000000	62.816837  
1521.000000	61.004303  
1520.000000	59.490795  
1519.000000	58.398845  
1518.000000	57.231043  
1517.000000	55.670146  
1516.000000	54.010487  
1515.000000	52.672744  
1514.000000	51.567288  
1513.000000	50.473125  
1512.000000	49.389738  
1511.000000	48.428610  
1510.000000	47.577565  
1509.000000	46.683637  
1508.000000	45.531304  
1507.000000	44.027741  
1506.000000	42.595658  
1505.000000	41.620223  
1504.000000	40.964647  
1503.000000	40.388376  
1502.000000	39.702319  
1501.000000	38.841974  
1500.000000	37.906229  
1499.000000	36.968380  
1498.000000	35.905575  
1497.000000	34.614311  
1496.000000	33.321242  
1495.000000	32.269968  
1494.000000	31.411045  
1493.000000	30.632323  
1492.000000	29.890816  
1491.000000	29.097846  
1490.000000	28.136060  
1489.000000	27.140449  
1488.000000	26.392094  
1487.000000	25.880300  
1486.000000	25.430468  
1485.000000	25.015756  
1484.000000	24.707217  
1483.000000	24.496670  
1482.000000	24.294454  
1481.000000	24.090843  
1480.000000	23.969346  
1479.000000	23.938674  
1478.000000	23.909637  
1477.000000	23.851408  
1476.000000	23.837945  
1475.000000	23.900006  
1474.000000	23.943920  
1473.000000	23.934563  
1472.000000	23.975395  
1471.000000	24.066645  
1470.000000	24.109244  
1469.000000	24.112636  
1468.000000	24.146311  
1467.000000	24.217545  
1466.000000	24.264289  
1465.000000	24.277922  
1464.000000	24.340955  
1463.000000	24.459474  
1462.000000	24.558376  
1461.000000	24.638119  
1460.000000	24.770763  
1459.000000	24.993099  
1458.000000	25.229585  
1457.000000	25.435408  
1456.000000	25.681508  
1455.000000	25.947998  
1454.000000	26.190088  
1453.000000	26.470160  
1452.000000	26.854650  
1451.000000	27.321551  
1450.000000	27.811284  
1449.000000	28.355992  
1448.000000	29.028474  
1447.000000	29.769141  
1446.000000	30.453827  
1445.000000	31.094910  
1444.000000	31.788209  
1443.000000	32.547958  
1442.000000	33.306660  
1441.000000	34.027698  
1440.000000	34.733974  
1439.000000	35.457604  
1438.000000	36.248146  
1437.000000	37.193380  
1436.000000	38.226394  
1435.000000	39.103872  
1434.000000	39.777270  
1433.000000	40.413595  
1432.000000	41.142841  
1431.000000	41.964361  
1430.000000	42.804874  
1429.000000	43.629012  
1428.000000	44.420063  
1427.000000	45.149033  
1426.000000	45.838366  
1425.000000	46.573163  
1424.000000	47.375920  
1423.000000	48.129538  
1422.000000	48.759811  
1421.000000	49.364466  
1420.000000	50.093228  
1419.000000	50.932275  
1418.000000	51.679576  
1417.000000	52.255361  
1416.000000	52.753412  
1415.000000	53.234012  
1414.000000	53.717717  
1413.000000	54.237439  
1412.000000	54.805015  
1411.000000	55.375018  
1410.000000	55.904102  
1409.000000	56.412070  
1408.000000	56.932381  
1407.000000	57.468285  
1406.000000	58.034687  
1405.000000	58.670961  
1404.000000	59.345879  
1403.000000	59.953853  
1402.000000	60.473046  
1401.000000	60.997879  
1400.000000	61.601095  
1399.000000	62.219338  
1398.000000	62.721869  
1397.000000	63.070330  
1396.000000	63.307781  
1395.000000	63.513297  
1394.000000	63.817711  
1393.000000	64.299010  
1392.000000	64.891263  
1391.000000	65.473225  
1390.000000	65.983801  
1389.000000	66.434307  
1388.000000	66.827790  
1387.000000	67.115667  
1386.000000	67.292512  
1385.000000	67.439220  
1384.000000	67.614941  
1383.000000	67.810923  
1382.000000	68.016924  
1381.000000	68.251126  
1380.000000	68.506746  
1379.000000	68.735350  
1378.000000	68.918758  
1377.000000	69.097139  
1376.000000	69.298161  
1375.000000	69.490720  
1374.000000	69.639263  
1373.000000	69.751014  
1372.000000	69.833323  
1371.000000	69.872685  
1370.000000	69.866861  
1369.000000	69.826284  
1368.000000	69.747371  
1367.000000	69.621495  
1366.000000	69.470374  
1365.000000	69.319185  
1364.000000	69.133069  
1363.000000	68.837849  
1362.000000	68.432856  
1361.000000	67.995386  
1360.000000	67.555552  
1359.000000	67.082129  
1358.000000	66.560646  
1357.000000	66.005288  
1356.000000	65.414655  
1355.000000	64.768144  
1354.000000	64.071873  
1353.000000	63.357606  
1352.000000	62.632260  
1351.000000	61.876835  
1350.000000	61.090094  
1349.000000	60.291218  
1348.000000	59.483549  
1347.000000	58.651352  
1346.000000	57.793493  
1345.000000	56.931110  
1344.000000	56.085143  
1343.000000	55.259766  
1342.000000	54.430914  
1341.000000	53.535463  
1340.000000	52.509802  
1339.000000	51.382576  
1338.000000	50.266467  
1337.000000	49.221895  
1336.000000	48.216555  
1335.000000	47.211957  
1334.000000	46.210344  
1333.000000	45.219780  
1332.000000	44.226354  
1331.000000	43.222565  
1330.000000	42.227355  
1329.000000	41.256358  
1328.000000	40.303870  
1327.000000	39.370859  
1326.000000	38.477514  
1325.000000	37.634673  
1324.000000	36.835087  
1323.000000	36.081101  
1322.000000	35.388540  
1321.000000	34.755071  
1320.000000	34.156999  
1319.000000	33.587368  
1318.000000	33.065940  
1317.000000	32.598832  
1316.000000	32.160916  
1315.000000	31.725437  
1314.000000	31.280928  
1313.000000	30.818509  
1312.000000	30.329957  
1311.000000	29.819847  
1310.000000	29.294480  
1309.000000	28.738798  
1308.000000	28.126810  
1307.000000	27.453512  
1306.000000	26.735106  
1305.000000	25.982475  
1304.000000	25.200713  
1303.000000	24.408792  
1302.000000	23.632081  
1301.000000	22.879478  
1300.000000	22.151984  
1299.000000	21.465708  
1298.000000	20.842871  
1297.000000	20.289957  
1296.000000	19.806381  
1295.000000	19.400009  
1294.000000	19.070337  
1293.000000	18.791676  
1292.000000	18.535232  
1291.000000	18.292800  
1290.000000	18.059477  
1289.000000	17.811535  
1288.000000	17.525260  
1287.000000	17.202382  
1286.000000	16.853926  
1285.000000	16.476351  
1284.000000	16.067048  
1283.000000	15.645308  
1282.000000	15.235047  
1281.000000	14.844114  
1280.000000	14.482477  
1279.000000	14.180199  
1278.000000	13.962108  
1277.000000	13.823378  
1276.000000	13.751609  
1275.000000	13.751328  
1274.000000	13.825664  
1273.000000	13.956787  
1272.000000	14.127295  
1271.000000	14.341743  
1270.000000	14.606372  
1269.000000	14.907743  
1268.000000	15.231637  
1267.000000	15.582184  
1266.000000	15.962985  
1265.000000	16.358876  
1264.000000	16.755289  
1263.000000	17.158517  
1262.000000	17.579274  
1261.000000	18.011609  
1260.000000	18.444633  
1259.000000	18.880461  
1258.000000	19.323352  
1257.000000	19.764879  
1256.000000	20.197123  
1255.000000	20.629162  
1254.000000	21.073652  
1253.000000	21.525356  
1252.000000	21.969903  
1251.000000	22.409271  
1250.000000	22.863286  
1249.000000	23.346415  
1248.000000	23.853316  
1247.000000	24.365139  
1246.000000	24.860361  
1245.000000	25.321661  
1244.000000	25.744787  
1243.000000	26.147560  
1242.000000	26.563828  
1241.000000	27.018278  
1240.000000	27.503462  
1239.000000	27.983462  
1238.000000	28.424240  
1237.000000	28.821861  
1236.000000	29.199084  
1235.000000	29.577066  
1234.000000	29.956801  
1233.000000	30.328473  
1232.000000	30.690500  
1231.000000	31.052619  
1230.000000	31.423853  
1229.000000	31.804268  
1228.000000	32.188288  
1227.000000	32.571089  
1226.000000	32.951144  
1225.000000	33.330036  
1224.000000	33.711072  
1223.000000	34.096909  
1222.000000	34.487965  
1221.000000	34.882498  
1220.000000	35.276574  
1219.000000	35.664060  
1218.000000	36.039458  
1217.000000	36.402272  
1216.000000	36.757296  
1215.000000	37.110083  
1214.000000	37.462823  
1213.000000	37.814194  
1212.000000	38.161998  
1211.000000	38.505544  
1210.000000	38.844904  
1209.000000	39.177219  
1208.000000	39.496520  
1207.000000	39.801318  
1206.000000	40.100253  
1205.000000	40.403224  
1204.000000	40.706916  
1203.000000	40.996627  
1202.000000	41.263738  
1201.000000	41.513980  
1200.000000	41.757346  
1199.000000	41.998908  
1198.000000	42.241591  
1197.000000	42.488042  
1196.000000	42.735494  
1195.000000	42.977598  
1194.000000	43.215595  
1193.000000	43.458857  
1192.000000	43.710632  
1191.000000	43.963634  
1190.000000	44.215114  
1189.000000	44.474830  
1188.000000	44.749065  
1187.000000	45.025767  
1186.000000	45.286382  
1185.000000	45.527514  
1184.000000	45.762389  
1183.000000	46.005930  
1182.000000	46.265092  
1181.000000	46.537256  
1180.000000	46.810397  
1179.000000	47.069754  
1178.000000	47.311394  
1177.000000	47.545933  
1176.000000	47.785604  
1175.000000	48.033383  
1174.000000	48.286096  
1173.000000	48.538209  
1172.000000	48.778442  
1171.000000	48.993818  
1170.000000	49.185280  
1169.000000	49.371656  
1168.000000	49.571149  
1167.000000	49.784473  
1166.000000	49.998836  
1165.000000	50.199945  
1164.000000	50.377854  
1163.000000	50.533010  
1162.000000	50.681910  
1161.000000	50.845402  
1160.000000	51.025465  
1159.000000	51.203145  
1158.000000	51.362776  
1157.000000	51.505765  
1156.000000	51.636362  
1155.000000	51.750239  
1154.000000	51.846742  
1153.000000	51.939041  
1152.000000	52.041199  
1151.000000	52.154446  
1150.000000	52.274250  
1149.000000	52.401282  
1148.000000	52.537235  
1147.000000	52.678851  
1146.000000	52.824541  
1145.000000	52.979766  
1144.000000	53.149129  
1143.000000	53.329502  
1142.000000	53.515196  
1141.000000	53.702572  
1140.000000	53.887116  
1139.000000	54.065889  
1138.000000	54.245487  
1137.000000	54.435953  
1136.000000	54.633398  
1135.000000	54.820861  
1134.000000	54.989991  
1133.000000	55.148281  
1132.000000	55.301048  
1131.000000	55.442226  
1130.000000	55.569458  
1129.000000	55.693023  
1128.000000	55.821666  
1127.000000	55.952554  
1126.000000	56.081956  
1125.000000	56.212332  
1124.000000	56.341937  
1123.000000	56.460920  
1122.000000	56.564945  
1121.000000	56.659676  
1120.000000	56.745860  
1119.000000	56.814956  
1118.000000	56.866636  
1117.000000	56.915254  
1116.000000	56.970707  
1115.000000	57.027193  
1114.000000	57.078638  
1113.000000	57.129933  
1112.000000	57.183092  
1111.000000	57.226669  
1110.000000	57.250568  
1109.000000	57.260265  
1108.000000	57.266020  
1107.000000	57.268707  
1106.000000	57.267430  
1105.000000	57.272283  
1104.000000	57.298559  
1103.000000	57.353612  
1102.000000	57.435472  
1101.000000	57.538745  
1100.000000	57.655676  
1099.000000	57.776887  
1098.000000	57.899131  
1097.000000	58.027276  
1096.000000	58.165892  
1095.000000	58.309770  
1094.000000	58.439919  
1093.000000	58.524072  
1092.000000	58.530504  
1091.000000	58.458688  
1090.000000	58.355380  
1089.000000	58.282353  
1088.000000	58.263662  
1087.000000	58.274624  
1086.000000	58.279581  
1085.000000	58.265021  
1084.000000	58.235719  
1083.000000	58.198551  
1082.000000	58.160640  
1081.000000	58.132642  
1080.000000	58.124861  
1079.000000	58.144712  
1078.000000	58.200549  
1077.000000	58.301825  
1076.000000	58.453989  
1075.000000	58.659782  
1074.000000	58.926475  
1073.000000	59.261361  
1072.000000	59.648087  
1071.000000	60.023763  
1070.000000	60.290783  
1069.000000	60.379691  
1068.000000	60.329608  
1067.000000	60.306188  
1066.000000	60.501627  
1065.000000	60.984226  
1064.000000	61.650146  
1063.000000	62.323043  
1062.000000	62.878152  
1061.000000	63.272055  
1060.000000	63.512196  
1059.000000	63.655114  
1058.000000	63.805625  
1057.000000	64.037781  
1056.000000	64.289059  
1055.000000	64.355805  
1054.000000	63.985781  
1053.000000	62.938323  
1052.000000	60.984023  
1051.000000	57.976159  
1050.000000	54.043561  
1049.000000	49.728364  
1048.000000	45.878816  
1047.000000	43.310547  
1046.000000	42.428655  
1045.000000	43.058165  
1044.000000	44.583874  
1043.000000	46.266253  
1042.000000	47.537030  
1041.000000	48.159604  
1040.000000	48.233518  
1039.000000	48.071107  
1038.000000	47.970628  
1037.000000	47.970795  
1036.000000	47.774540  
1035.000000	46.946716  
1034.000000	45.229591  
1033.000000	42.696231  
1032.000000	39.666519  
1031.000000	36.565608  
1030.000000	33.856939  
1029.000000	31.988682  
1028.000000	31.271415  
1027.000000	31.738527  
1026.000000	33.127030  
1025.000000	35.029022  
1024.000000	37.087430  
1023.000000	39.085975  
1022.000000	40.928211  
1021.000000	42.585288  
1020.000000	44.058968  
1019.000000	45.365812  
1018.000000	46.534447  
1017.000000	47.597624  
1016.000000	48.572014  
1015.000000	49.449779  
1014.000000	50.221223  
1013.000000	50.902997  
1012.000000	51.535543  
1011.000000	52.156851  
1010.000000	52.784525  
1009.000000	53.415081  
1008.000000	54.030514  
1007.000000	54.609978  
1006.000000	55.144199  
1005.000000	55.637875  
1004.000000	56.097842  
1003.000000	56.527080  
1002.000000	56.930086  
1001.000000	57.310614  
1000.000000	57.661457  
999.000000	 57.971757  
998.000000	 58.249327  
997.000000	 58.520057  
996.000000	 58.798974  
995.000000	 59.076343  
994.000000	 59.337413  
993.000000	 59.580254  
992.000000	 59.808798  
991.000000	 60.026128  
990.000000	 60.241831  
989.000000	 60.467152  
988.000000	 60.693363  
987.000000	 60.893162  
986.000000	 61.055201  
985.000000	 61.200765  
984.000000	 61.354776  
983.000000	 61.516873  
982.000000	 61.673387  
981.000000	 61.821557  
980.000000	 61.966882  
979.000000	 62.109348  
978.000000	 62.247051  
977.000000	 62.383782  
976.000000	 62.521237  
975.000000	 62.653188  
974.000000	 62.777029  
973.000000	 62.900305  
972.000000	 63.026166  
971.000000	 63.143548  
970.000000	 63.242077  
969.000000	 63.327204  
968.000000	 63.412063  
967.000000	 63.503562  
966.000000	 63.602074  
965.000000	 63.703015  
964.000000	 63.793548  
963.000000	 63.862532  
962.000000	 63.920978  
961.000000	 63.996591  
960.000000	 64.098559  
959.000000	 64.202904  
958.000000	 64.283375  
957.000000	 64.342316  
956.000000	 64.398737  
955.000000	 64.460020  
954.000000	 64.519984  
953.000000	 64.574279  
952.000000	 64.623813  
951.000000	 64.670319  
950.000000	 64.719162  
949.000000	 64.779352  
948.000000	 64.852578  
947.000000	 64.930211  
946.000000	 65.007281  
945.000000	 65.088887  
944.000000	 65.176144  
943.000000	 65.258036  
942.000000	 65.326179  
941.000000	 65.387212  
940.000000	 65.452202  
939.000000	 65.523526  
938.000000	 65.598493  
937.000000	 65.674019  
936.000000	 65.740594  
935.000000	 65.784969  
934.000000	 65.809183  
933.000000	 65.836901  
932.000000	 65.891647  
931.000000	 65.975823  
930.000000	 66.074874  
929.000000	 66.170987  
928.000000	 66.248740  
927.000000	 66.301364  
926.000000	 66.338675  
925.000000	 66.377030  
924.000000	 66.417235  
923.000000	 66.446933  
922.000000	 66.468655  
921.000000	 66.506143  
920.000000	 66.573316  
919.000000	 66.653896  
918.000000	 66.722588  
917.000000	 66.770853  
916.000000	 66.800400  
915.000000	 66.808030  
914.000000	 66.792938  
913.000000	 66.767695  
912.000000	 66.748061  
911.000000	 66.739559  
910.000000	 66.740944  
909.000000	 66.747628  
908.000000	 66.744007  
907.000000	 66.710587  
906.000000	 66.652737  
905.000000	 66.606336  
904.000000	 66.598483  
903.000000	 66.615026  
902.000000	 66.622390  
901.000000	 66.609963  
900.000000	 66.594443  
899.000000	 66.592647  
898.000000	 66.607824  
897.000000	 66.634854  
896.000000	 66.660574  
895.000000	 66.664542  
894.000000	 66.637707  
893.000000	 66.599113  
892.000000	 66.580667  
891.000000	 66.596930  
890.000000	 66.639243  
889.000000	 66.692768  
888.000000	 66.745132  
887.000000	 66.783590  
886.000000	 66.801034  
885.000000	 66.804172  
884.000000	 66.799891  
883.000000	 66.773025  
882.000000	 66.696164  
881.000000	 66.571074  
880.000000	 66.448391  
879.000000	 66.391971  
878.000000	 66.422664  
877.000000	 66.501978  
876.000000	 66.569748  
875.000000	 66.593082  
874.000000	 66.580252  
873.000000	 66.556069  
872.000000	 66.532897  
871.000000	 66.505838  
870.000000	 66.467339  
869.000000	 66.420387  
868.000000	 66.380453  
867.000000	 66.367299  
866.000000	 66.389016  
865.000000	 66.428892  
864.000000	 66.453635  
863.000000	 66.441647  
862.000000	 66.399949  
861.000000	 66.349196  
860.000000	 66.300474  
859.000000	 66.254663  
858.000000	 66.214287  
857.000000	 66.181778  
856.000000	 66.151059  
855.000000	 66.114379  
854.000000	 66.074284  
853.000000	 66.036602  
852.000000	 65.995729  
851.000000	 65.940491  
850.000000	 65.871142  
849.000000	 65.797144  
848.000000	 65.722456  
847.000000	 65.646976  
846.000000	 65.575882  
845.000000	 65.509394  
844.000000	 65.428755  
843.000000	 65.314085  
842.000000	 65.173974  
841.000000	 65.034202  
840.000000	 64.897379  
839.000000	 64.739697  
838.000000	 64.553170  
837.000000	 64.366186  
836.000000	 64.211106  
835.000000	 64.090430  
834.000000	 63.984456  
833.000000	 63.874226  
832.000000	 63.745926  
831.000000	 63.589944  
830.000000	 63.410997  
829.000000	 63.229323  
828.000000	 63.060574  
827.000000	 62.899987  
826.000000	 62.727382  
825.000000	 62.514847  
824.000000	 62.229281  
823.000000	 61.843514  
822.000000	 61.339798  
821.000000	 60.680538  
820.000000	 59.793215  
819.000000	 58.631536  
818.000000	 57.246448  
817.000000	 55.730970  
816.000000	 54.067842  
815.000000	 52.100772  
814.000000	 49.746193  
813.000000	 47.238285  
812.000000	 45.092830  
811.000000	 43.775880  
810.000000	 43.401551  
809.000000	 43.738475  
808.000000	 44.451179  
807.000000	 45.298358  
806.000000	 46.158015  
805.000000	 46.965892  
804.000000	 47.679016  
803.000000	 48.279392  
802.000000	 48.780206  
801.000000	 49.212520  
800.000000	 49.598804  
799.000000	 49.936845  
798.000000	 50.213206  
797.000000	 50.432198  
796.000000	 50.620472  
795.000000	 50.797560  
794.000000	 50.953204  
793.000000	 51.064947  
792.000000	 51.132668  
791.000000	 51.184995  
790.000000	 51.252674  
789.000000	 51.341837  
788.000000	 51.431386  
787.000000	 51.492233  
786.000000	 51.513401  
785.000000	 51.514335  
784.000000	 51.527732  
783.000000	 51.566562  
782.000000	 51.613426  
781.000000	 51.645154  
780.000000	 51.657871  
779.000000	 51.659733  
778.000000	 51.648447  
777.000000	 51.610637  
776.000000	 51.541492  
775.000000	 51.452392  
774.000000	 51.357773  
773.000000	 51.264139  
772.000000	 51.173330  
771.000000	 51.087022  
770.000000	 51.003219  
769.000000	 50.912999  
768.000000	 50.804030  
767.000000	 50.665347  
766.000000	 50.488038  
765.000000	 50.262293  
764.000000	 49.971526  
763.000000	 49.587432  
762.000000	 49.075994  
761.000000	 48.413984  
760.000000	 47.596388  
759.000000	 46.621325  
758.000000	 45.467598  
757.000000	 44.088415  
756.000000	 42.424622  
755.000000	 40.432668  
754.000000	 38.133658  
753.000000	 35.675144  
752.000000	 33.353725  
751.000000	 31.544531  
750.000000	 30.552937  
749.000000	 30.475427  
748.000000	 31.158095  
747.000000	 32.277679  
746.000000	 33.495149  
745.000000	 34.590874  
744.000000	 35.501101  
743.000000	 36.247323  
742.000000	 36.843211  
741.000000	 37.272180  
740.000000	 37.533628  
739.000000	 37.678932  
738.000000	 37.790693  
737.000000	 37.934369  
736.000000	 38.127315  
735.000000	 38.339787  
734.000000	 38.523449  
733.000000	 38.650391  
732.000000	 38.728844  
731.000000	 38.778052  
730.000000	 38.795753  
729.000000	 38.760573  
728.000000	 38.658171  
727.000000	 38.488990  
726.000000	 38.259347  
725.000000	 37.989486  
724.000000	 37.720445  
723.000000	 37.475478  
722.000000	 37.207853  
721.000000	 36.819377  
720.000000	 36.260397  
719.000000	 35.602582  
718.000000	 34.990420  
717.000000	 34.541157  
716.000000	 34.302215  
715.000000	 34.259065  
714.000000	 34.352900  
713.000000	 34.508176  
712.000000	 34.664600  
711.000000	 34.785633  
710.000000	 34.843169  
709.000000	 34.810421  
708.000000	 34.673543  
707.000000	 34.438571  
706.000000	 34.125347  
705.000000	 33.769106  
704.000000	 33.421903  
703.000000	 33.124114  
702.000000	 32.873226  
701.000000	 32.645011  
700.000000	 32.442718  
699.000000	 32.296081  
698.000000	 32.207910  
697.000000	 32.138783  
696.000000	 32.061615  
695.000000	 31.995944  
694.000000	 31.963159  
693.000000	 31.936834  
692.000000	 31.871504  
691.000000	 31.764240  
690.000000	 31.652601  
689.000000	 31.562838  
688.000000	 31.492448  
687.000000	 31.438293  
686.000000	 31.408966  
685.000000	 31.404188  
684.000000	 31.409085  
683.000000	 31.415540  
682.000000	 31.425376  
681.000000	 31.427258  
680.000000	 31.395224  
679.000000	 31.322869  
678.000000	 31.237588  
677.000000	 31.165694  
676.000000	 31.103856  
675.000000	 31.030766  
674.000000	 30.939859  
673.000000	 30.852687  
672.000000	 30.801073  
671.000000	 30.804999  
670.000000	 30.859670  
669.000000	 30.932247  
668.000000	 30.929465  
667.000000	 30.755876  
666.000000	 30.495878  
665.000000	 30.268676  
664.000000	 30.100944  
663.000000	 29.990524  
662.000000	 29.912182  
661.000000	 29.827659  
660.000000	 29.720920  
659.000000	 29.614095  
658.000000	 29.531602  
657.000000	 29.460154  
656.000000	 29.364234  
655.000000	 29.224921  
654.000000	 29.055047  
653.000000	 28.889277  
652.000000	 28.766062  
651.000000	 28.707096  
650.000000	 28.698403  
649.000000	 28.696548  
648.000000	 28.664512  
647.000000	 28.596105  
646.000000	 28.504211  
645.000000	 28.399767  
644.000000	 28.287693  
643.000000	 28.175030  
642.000000	 28.077892  
641.000000	 28.019759  
640.000000	 28.016549  
639.000000	 28.053140  
638.000000	 28.085223  
637.000000	 28.086508  
636.000000	 28.087628  
635.000000	 28.144820  
634.000000	 28.268020  
633.000000	 28.400580  
632.000000	 28.472674  
631.000000	 28.458252  
630.000000	 28.388137  
629.000000	 28.319529  
628.000000	 28.287537  
627.000000	 28.277397  
626.000000	 28.245838  
625.000000	 28.177211  
624.000000	 28.105564  
623.000000	 28.072610  
622.000000	 28.081243  
621.000000	 28.106247  
620.000000	 28.131157  
619.000000	 28.149989  
618.000000	 28.150710  
617.000000	 28.125061  
616.000000	 28.082666  
615.000000	 28.029615  
614.000000	 27.950592  
613.000000	 27.841959  
612.000000	 27.745053  
611.000000	 27.711433  
610.000000	 27.740306  
609.000000	 27.783794  
608.000000	 27.808865  
607.000000	 27.819641  
606.000000	 27.829493  
605.000000	 27.850909  
604.000000	 27.904440  
603.000000	 27.994760  
602.000000	 28.075743  
601.000000	 28.084625  
600.000000	 28.026569  
599.000000	 27.984997  
598.000000	 28.019453  
597.000000	 28.086244  
596.000000	 28.085370  
595.000000	 27.971944  
594.000000	 27.806626  
593.000000	 27.694590  
592.000000	 27.692297  
591.000000	 27.771445  
590.000000	 27.867055  
589.000000	 27.959805  
588.000000	 28.082745  
587.000000	 28.246671  
586.000000	 28.397682  
585.000000	 28.476057  
584.000000	 28.497666  
583.000000	 28.539957  
582.000000	 28.655085  
581.000000	 28.822630  
580.000000	 28.971272  
579.000000	 29.031321  
578.000000	 28.994482  
577.000000	 28.940709  
576.000000	 28.984670  
575.000000	 29.156002  
574.000000	 29.353357  
573.000000	 29.465387  
572.000000	 29.485605  
571.000000	 29.482108  
570.000000	 29.508309  
569.000000	 29.575949  
568.000000	 29.691143  
567.000000	 29.852353  
566.000000	 30.019906  
565.000000	 30.151959  
564.000000	 30.265074  
563.000000	 30.409285  
562.000000	 30.565306  
561.000000	 30.624382  
560.000000	 30.521034  
559.000000	 30.332712  
558.000000	 30.215696  
557.000000	 30.262512  
556.000000	 30.440459  
555.000000	 30.641803  
554.000000	 30.769812  
553.000000	 30.806773  
552.000000	 30.800341  
551.000000	 30.793427  
550.000000	 30.780657  
549.000000	 30.727359  
548.000000	 30.636936  
547.000000	 30.574033  
546.000000	 30.593257  
545.000000	 30.656565  
544.000000	 30.664159  
543.000000	 30.596035  
542.000000	 30.577486  
541.000000	 30.745292  
540.000000	 31.048876  
539.000000	 31.239882  
538.000000	 31.148136  
537.000000	 30.918155  
536.000000	 30.834881  
535.000000	 30.960091  
534.000000	 31.079130  
533.000000	 31.042104  
532.000000	 30.966746  
531.000000	 31.000873  
530.000000	 31.032083  
529.000000	 30.808662  
528.000000	 30.349170  
527.000000	 30.014984  
526.000000	 30.068144  
525.000000	 30.305539  
524.000000	 30.328675  
523.000000	 30.033735  
522.000000	 29.641871  
521.000000	 29.383713  
520.000000	 29.372186  
519.000000	 29.726903  
518.000000	 30.567597  
517.000000	 31.658981  
516.000000	 32.246029  
515.000000	 31.616965  
514.000000	 29.843988  
513.000000	 27.826908  
512.000000	 26.668454  
511.000000	 27.009296  
510.000000	 28.540300  
509.000000	 30.184043  
508.000000	 31.034730  
507.000000	 31.020172  
506.000000	 30.266657  
505.000000	 28.527186  
504.000000	 25.880317  
503.000000	 23.295988  
502.000000	 22.965367  
501.000000	 25.984465  
500.000000	 29.540271  
499.000000	 30.436941  
498.000000	 30.231616  
497.000000	 31.856756  
496.000000	 35.234625  
495.000000	 37.985929  
494.000000	 38.121244  
493.000000	 36.601406  
492.000000	 34.013997  
491.000000	 31.610404  
490.000000	 31.030986  
489.000000	 26.162679  
488.000000	 15.492011  
487.000000	 12.282190  
486.000000	 18.219005  
485.000000	 18.965556  
484.000000	 14.421135  
483.000000	 5.604768   
482.000000	 8.343815   
481.000000	 20.641063  
480.000000	 31.877965  
479.000000	 66.326702  
478.000000	 127.872983 
477.000000	 112.175864 
476.000000	 67.174837  
475.000000	 57.653415  
474.000000	 60.038465  
473.000000	 57.182072  
472.000000	 43.897855  
471.000000	 35.123087  
470.000000	 36.656534  
469.000000	 50.454655  
468.000000	 116.675838 
467.000000	 155.514706 
466.000000	 106.973786 
465.000000	 48.011486  
464.000000	 43.941605  
463.000000	 67.627766  
462.000000	 94.931723  
461.000000	 228.284383 
460.000000	 516.448984 
459.000000	 348.399403 
458.000000	 153.842273 
457.000000	 74.155785  
456.000000	 22.470458  
455.000000	 30.245136  
454.000000	 153.172212 
453.000000	 164.656442 
452.000000	 75.286872  
451.000000	 43.075062  
450.000000	 27.261522  

